"id","trial","trial_index","abstract","treatment","treatment_string","title","abstract_text","stimulus","decision1_resp","decision1_rt","for_resp","for_resp_factor","for_rt","decision2_resp","decision2_rt","rethink_resp","rethink_rt","read1_rt","read2_rt"
1,1,5,15,0,"non-significant","Therapist and Patient Age Effects on Dropout and Residual Symptoms in Borderline Personality Disorder","Borderline personality disorder (BPD) is associated with high levels of psychological strain. Residual symptoms after treatment and dropout rates are especially high in young adults. Evidence from other personality disorders suggests that in this age group, the therapist’s experience is negatively associated with treatment outcome. Thus, in the present study, we examined whether young adults (18-30 years) with BPD treated by more experienced therapists were more likely (1) to report elevated symptoms at post-treatment and (2) to drop out of therapy. In total, 145 individuals diagnosed with BPD underwent a standardized and manualized 18-week cognitive behavior therapy intervention administered by 53 therapists (therapist experience: M=21.4; SD=7.4). Symptom severity was assessed using the Borderline Symptom List 23 (BSL-23) at baseline and after treatment. Linear and logistic multilevel models were fitted to account for the nested structure of the data. Twenty-one individuals dropped out during therapy. Young adults with BPD treated by more experienced therapists were not significantly more likely to report elevated symptoms at post-treatment or to drop out. The results indicate that young individuals with BPD do not benefit more from therapy with less experienced psychotherapists, either in terms of symptom reduction or treatment dropout.","text/15b.html_decision1",92,19519,5,6,9735,60,3495,0,10277,12184,NA
1,2,11,14,0,"non-significant","Heart Rate Variability and Therapy Dropout in Arachnophobia","Exposure therapy is an efficacious treatment in arachnophobia. However, several studies have documented high dropout rates. A recent study found that low high-frequency heart rate variability (HF-HRV), a reliable physiological indicator of parasympathetic activation, predicted dropout from exposure-focused therapy in patients with agoraphobia. Therefore, we investigated whether low pre-treatment HF-HRV predicts therapy dropout in individuals with arachnophobia. A total of 146 patients with arachnophobia underwent a standardized and manualized 12-week treatment focusing on exposure in vivo. Logistic regression models were fitted. Forty-two patients dropped out during treatment. HF-HRV was not significantly associated with dropout from exposure-focused treatment. The findings suggest that contrary to individuals with agoraphobia, spider-phobic individuals with low HF-HRV may not benefit  from treatment options aimed at increasing HF-HRV to avoid high dropout rates.","text/14b.html_decision1",71,2379,5,6,4348,90,4464,0,6196,5505,NA
1,3,17,1,1,"significant","Efficacy of MBCT for Emotion Regulation in Bulimia Nervosa","Eating disorders are characterized by emotional, behavioral, and physiological dysregulation in relation to food intake and self-identity. Several studies have documented positive effects of mindfulness-based interventions in the treatment of eating disorders, and systematic reviews have indicated emotion regulation as a specific mechanism of mindfulness-based interventions. Hence, we hypothesized that low emotion regulation skills in individuals with bulimia nervosa (BN) might be improved by mindfulness-based cognitive therapy (MBCT). A total of 129 women diagnosed with BN received group MBCT. The Courtauld Emotional Control Scale (CECS) was applied pre- and post-intervention and an ANOVA was conducted. A significant interaction effect emerged, indicating an improvement in emotion regulation over time, especially in patients reporting lower emotion regulation skills at baseline. Mindfulness-based interventions might be useful to tackle aspects of dysregulation in eating disorders.","text/1a.html_decision1",72,2381,5,6,10967,84,2795,0,2112,5636,NA
1,4,23,4,0,"non-significant","Therapists’ Empathy and Symptom Severity Bias in the First Therapy Session","A recent study on panic disorder found that patients rated their own symptoms as significantly lower when the study therapist showed low empathy, as compared to high empathy, in the first therapy session. The present observational study investigated whether study therapists’ empathy also predicts symptom severity in individuals diagnosed with major depression (MD). A total of 153 individuals diagnosed with MD completed the Beck Depression Inventory during the first therapy session. Empathy in the 56 responsible study therapists was measured using the Toronto Empathy Questionnaire (TEQ). The therapists’ TEQ scores did not significantly predict patients’ BDI scores during first therapy session. Patients with low-empathy therapists reported symptom levels comparable to patients with high-empathy therapists. The findings demonstrate that baseline measures of symptom severity in MD might not be biased by  lack of empathy of the study therapist.","text/4b.html_decision1",82,2347,5,6,2947,90,5081,0,10383,2794,NA
1,5,29,8,0,"non-significant","Panic Disorder, Cognitive Bias, and Tinnitus","Individuals with panic disorder have an elevated risk of developing permanent tinnitus compared to healthy adults. Evidence from a large cohort study indicated that cognitive biases might play a role in the emergence of tinnitus. Since cognitive biases are common in individuals with panic disorder, we examined whether cognitive biases in panic disorder predict the emergence of tinnitus. The present prospective cohort study included 123 individuals with panic disorder. At baseline, participants completed measures of cognitive bias and were assessed by a clinician regarding anxiety symptoms and tinnitus. The assessment of anxiety symptoms and tinnitus was repeated at 3-year follow-up. Hazard ratios were estimated and logistic regression analyses were computed. At 3-year follow-up, 12% of participants reported a newly emerged tinnitus. Cognitive biases did not significantly predict the emergence of tinnitus. This study suggests that addressing cognitive biases in psychotherapy will likely not yield beneficial preventive effects for tinnitus emergence in patients with panic disorder.","text/8b.html_decision1",72,3048,4,5,2645,82,4179,0,1996,3958,NA
1,6,35,13,1,"significant","Deficits in Defensive Reactivity and QoL in Antisocial Personality Disorder","There is growing evidence of deficits in defensive reactivity (indexed by the startle blink reflex) in individuals diagnosed with antisocial personality disorder (ASPD). However, to date, no study has examined the role of defensive reactivity in the quality of life (QoL) of individuals with ASPD. In the current study, we therefore explored whether the startle blink reflex is negatively associated with QoL in 143 individuals diagnosed with ASPD. Defensive reactivity was measured using a fear-potentiated startle reflex test. To assess QoL, participants completed the Short Form (36) Health Survey (SF-36). Startle blink reflex potentiation deficits during aversive picture viewing were common in the sample (62.3%). Blink reflex potentiation was negatively and significantly associated with QoL. In sum, these findings provide clear evidence that deficits in defensive reactivity are linked to poor QoL in ASPD.","text/13a.html_decision1",72,2297,4,5,2598,82,2195,0,1646,4561,NA
1,7,41,16,0,"non-significant","Contrast Avoidance and Residual Symptoms in Patients with GAD after CBT","The contrast avoidance model assumes that rather than the avoidance of negative affect, the avoidance of strong emotional contrasts is a central component of generalized anxiety disorder (GAD). Several experimental studies have demonstrated evidence to support this theoretical framework, but no study to date has investigated whether higher pre-treatment levels of contrast avoidance predict higher post-treatment residual symptoms following cognitive behavior therapy (CBT), when controlling for baseline symptom severity. In the present study, 128 patients with GAD underwent a 15-week CBT intervention focusing on worry exposure. Both GAD symptom severity and emotional contrast avoidance severity were assessed at baseline and at follow-up. There was no significant association between contrast avoidance at baseline and residual symptoms at follow-up, even when controlling for baseline symptom severity. The findings of this study provide no evidence that contrast avoidance may influence treatment efficacy in GAD.","text/16b.html_decision1",71,2913,5,6,2130,80,1814,0,1628,2995,NA
1,8,47,11,0,"non-significant","Socioeconomic Adaptation Theory of Rehabilitation in Schizophrenia","According to the Socioeconomic Adaptation Theory of Rehabilitation (SAToR), individuals with higher socioeconomic status (SES) tend to benefit more from psychiatric rehabilitation than individuals with lower SES. In line with the SAToR, we hypothesized that higher SES is associated with a greater reduction in symptom severity in patients with schizophrenia. We conducted an observational study over the course of a 12-month rehabilitation program, encompassing 146 participants with schizophrenia who were newly admitted to a psychiatric rehabilitation clinic. Symptom severity was measured using the Positive and Negative Syndrome Scale (PANSS). A longitudinal multilevel model was computed to predict rates of change in symptom severity. Contrary to our hypothesis, symptom change was not significantly predicted by SES. This finding suggests that contrary to the SAToR, individuals with higher socioeconomic status (SES) likely do not benefit more from rehabilitation of schizophrenia than individuals with lower SES.","text/11b.html_decision1",71,4131,5,6,1763,69,1762,0,2963,1801,NA
1,9,53,5,1,"significant","Gender Differences in Long-Term QoL after CBT for OCD","Cognitive behavior therapy (CBT) is considered the first-line psychotherapeutic treatment for obsessive-compulsive disorder (OCD). In psychotherapeutic treatments of other disorders, it has been shown that women benefit more from CBT than do men in terms of long-term quality of life (QoL). This observational study examined whether women with OCD show a greater benefit from CBT five years after treatment completion. Participants were 84 men and 87 women with a previous diagnosis of OCD who had completed CBT five years earlier. QoL was assessed using the McGill Quality of Life Questionnaire (MQOL). Symptom severity at the end of therapy was assessed using the Yale–Brown Obsessive Compulsive Scale (Y-BOCS). Men reported significantly lower QoL compared to women, and this difference remained significant when QoL scores were adjusted for symptom severity at the end of therapy. Physical QoL showed the most pronounced gender difference. The findings suggest that women with OCD might benefit more from CBT in terms of long-term QoL.","text/5a.html_decision1",71,3896,4,5,3032,84,4814,0,2212,1674,NA
1,10,59,3,1,"significant","Intolerance of Uncertainty in PTSD","Several studies have found that prolonged exposure therapy effectively reduces post-traumatic stress disorder (PTSD) symptoms. Since intolerance of uncertainty (IU), as a cognitive mechanism, has been consistently found to be relevant for both the emergence and maintenance of PTSD, we hypothesized that reductions in IU would predict subsequent reductions in PTSD symptoms. Therefore, we conducted a prospective survey study that accompanied prolonged exposure therapy in 165 PTSD patients. Participants completed measures of PTSD symptoms and IU at the first therapy session (T0) and six (T1), 12 (T2), and 18 weeks later (T3). Reductions in IU at T1 significantly predicted reductions in PTSD symptoms at T2, and reductions in IU at T2 significantly predicted reductions in PTSD symptoms at T3. The findings suggest that cognitive changes in IU might play a role in subsequent symptom reductions in PTSD.","text/3a.html_decision1",82,2132,5,6,2747,81,2394,0,2679,3621,NA
1,11,65,9,0,"non-significant","Behavioral Activation and Working Memory Capacity in MDD","Several studies have documented positive effects of behavioral activation therapy (BAT) on stress reduction in persons with major depressive disorder (MDD). Two recent studies reported that the efficacy of BAT in terms of stress reduction was mediated by fluid intelligence. However, a neuroscientific study suggested that this mediation might be attributable to a shared functional area between stress regulation and working memory in the hypothalamus. Therefore, in this paper, we explored whether working memory capacity mediates the efficacy of BAT regarding stress reduction in 145 individuals diagnosed with MDD. At baseline, we assessed working memory capacity using an n-back task (2/3-back) and fluid intelligence using the Culture Fair Intelligence Test (CFIT). Stress was assessed using the Perceived Stress Scale (PSS-10) at baseline and after 14 weekly sessions of BAT. A SEM model was estimated to evaluate mediation. In our SEM model, significant stress reduction after BAT was not significantly mediated either by working memory capacity or by fluid intelligence. The findings indicate that the efficacy of BAT regarding stress reduction is not mediated by working memory capacity or by other aspects of fluid intelligence, potentially ruling out a shared functional area in the hypothalamus.","text/9b.html_decision1",71,4416,5,6,2530,81,2177,0,2047,5005,NA
1,12,71,10,0,"non-significant","Polygenic Risk Scores and Heart Rate during Exposure in Patients with Agoraphobia","Polygenic risk scores (PRS) describe individual risks for specific diseases based on genetic information from multiple loci. Previous studies suggest that PRS may predict differences in the physiological activation of individuals with agoraphobia. In this study, we examined whether the possibility to predict affected individuals’ heart rate by their PRS depends on the type of exposure trial. We postulated that PRS would predict heart rate within in-vivo as well as in-virtuo trials. Data were analyzed from 132 individuals diagnosed with agoraphobia who underwent either in-vivo (N = 63) or in-virtuo (N = 69) exposure. Contrary to our hypothesis, heart rate was not significantly predicted by PRS in either the in-vivo or the in-virtuo setting. The results of this study suggest that while PRS provide useful diagnostic information for an individual’s risk of agoraphobia, they may not provide useful information for predicting physiological reactions in exposure settings.","text/10b.html_decision1",83,3581,5,6,3363,81,3162,0,2695,3651,NA
1,13,77,6,1,"significant","Stressful Life Events and Symptom Deterioration in Adult ADHD","This longitudinal study investigated whether stressful life events in young adulthood predict symptom deterioration in attention-deficit/hyperactivity disorder (ADHD). A total of 164 university students diagnosed with ADHD during childhood participated in our prospective study. Participants completed measures on ADHD symptom severity and stressful life events at baseline (t0: age 18-20), 5-year follow-up (t1: age 23-25), and 9-year follow-up (t2: age 27-29). Symptom deterioration was defined as the difference in symptom severity between two measurement time points. Stressful life events at t0 and t1 significantly predicted symptom deterioration at t1 and t2, respectively. The findings support evidence from a recent qualitative study that stressful life events might be linked to subsequent symptom deterioration in ADHD during young adulthood.","text/6a.html_decision1",60,5713,4,5,3017,70,2177,0,1930,2500,NA
1,14,83,7,1,"significant","Emotion Recognition Bias and Satisfaction with Intimate Relationships in Bipolar II Disorder","Emotion recognition bias is consistently found in affective disorders. This observational study explored whether emotion recognition bias for ambiguous facial expressions is linked to satisfaction with intimate relationships in individuals diagnosed with bipolar II disorder. A total of 144 patients with bipolar II disorder who reported being in an intimate relationship (married, cohabiting, engaged, or dating) completed the Emotional Bias Task (EBT) and the Relationship Assessment Scale (RAS). EBT scores were significantly and negatively correlated with RAS scores. The results indicate that emotion recognition for ambiguous facial expressions is negatively correlated with self-reported relationship quality in patients with bipolar II disorder.","text/7a.html_decision1",81,3812,5,6,2049,71,3129,0,3112,1798,NA
1,15,89,2,1,"significant","Antenatal Depressive Symptoms Predict Postnatal Depersonalization/Derealization Symptoms","Around one fifth of all pregnant women in the US report antenatal depressive symptoms (ADS). A recent study on the mental health of young mothers in Bolivia found that ADS predict not only postnatal depression but also postnatal depersonalization/derealization symptoms (PDDS). The present study investigated whether ADS also predict PDDS in mothers in the US. Therefore, we conducted a prospective survey study with 124 pregnant women in San Diego County, CA, and in Minneapolis, MN. Participants were recruited in week 20 of pregnancy. ADS were measured using the Beck Depression Inventory (BDI). Six months after hospital discharge, participants completed a self-report questionnaire for PDDS using the Dissociative Experiences Scale (DES). 20.1% of the women reported ADS above the cut-off (BDI score ≥ 18) and 7.4% reported having dissociative experiences in the six months after birth (DES score ≥ 20). ADS scores significantly predicted PDDS, with higher ADS scores indicating higher PDDS scores. Consistent with findings in Bolivian mothers, the present findings in American mothers suggest that ADS might be a relevant etiological factor for PDDS.","text/2a.html_decision1",60,2514,4,5,3631,69,2128,0,1796,1408,NA
1,16,95,12,1,"significant","Efficacy of Behavioral Activation Depending on Age in Generalized Anxiety Disorder","Generalized anxiety disorder (GAD) is one of the most prevalent mental illnesses worldwide. Behavioral activation (BA), as a third-wave behavioral therapy, is consistently found to be an efficacious treatment option for major depressive disorder (MDD). In addition to its role in treating MDD, BA may be beneficial in terms of alleviating anxiety in GAD. However, little is known about whether BA reduces anxiety across the lifespan, as BA shows a high age-sensitive efficacy in patients with MDD, with younger patients benefiting more from BA compared to older patients. Therefore, the present study analyzed whether age is associated with the efficacy of BA regarding anxiety reduction. The sample comprised 163 individuals with GAD, who participated at two measurement time points (baseline and 6-month follow-up). The mean age was 39.3 years (SD = 9.7) and age was normally distributed. GAD symptom severity was examined using the Generalized Anxiety Disorder Scale-7 (GAD-7). GAD-7 scores were significantly reduced at follow-up. Furthermore, the effect of BA on symptom reduction was significantly associated with age, with younger patients benefiting more from BA than older patients. Our findings suggest that BA is also relevant for GAD. Moreover, comparable to depression, younger people show stronger effects of BA in GAD.","text/12a.html_decision1",80,3846,5,6,2230,90,2947,0,1679,3863,NA
2,1,5,3,1,"significant","Intolerance of Uncertainty in PTSD","Several studies have found that prolonged exposure therapy effectively reduces post-traumatic stress disorder (PTSD) symptoms. Since intolerance of uncertainty (IU), as a cognitive mechanism, has been consistently found to be relevant for both the emergence and maintenance of PTSD, we hypothesized that reductions in IU would predict subsequent reductions in PTSD symptoms. Therefore, we conducted a prospective survey study that accompanied prolonged exposure therapy in 165 PTSD patients. Participants completed measures of PTSD symptoms and IU at the first therapy session (T0) and six (T1), 12 (T2), and 18 weeks later (T3). Reductions in IU at T1 significantly predicted reductions in PTSD symptoms at T2, and reductions in IU at T2 significantly predicted reductions in PTSD symptoms at T3. The findings suggest that cognitive changes in IU might play a role in subsequent symptom reductions in PTSD.","text/3a.html_decision1",95,7234,5,6,3864,90,6475,1,20448,25833,73976
2,2,12,10,0,"non-significant","Polygenic Risk Scores and Heart Rate during Exposure in Patients with Agoraphobia","Polygenic risk scores (PRS) describe individual risks for specific diseases based on genetic information from multiple loci. Previous studies suggest that PRS may predict differences in the physiological activation of individuals with agoraphobia. In this study, we examined whether the possibility to predict affected individuals’ heart rate by their PRS depends on the type of exposure trial. We postulated that PRS would predict heart rate within in-vivo as well as in-virtuo trials. Data were analyzed from 132 individuals diagnosed with agoraphobia who underwent either in-vivo (N = 63) or in-virtuo (N = 69) exposure. Contrary to our hypothesis, heart rate was not significantly predicted by PRS in either the in-vivo or the in-virtuo setting. The results of this study suggest that while PRS provide useful diagnostic information for an individual’s risk of agoraphobia, they may not provide useful information for predicting physiological reactions in exposure settings.","text/10b.html_decision1",90,6627,4,5,2586,89,11771,0,3104,51548,NA
2,3,18,2,1,"significant","Antenatal Depressive Symptoms Predict Postnatal Depersonalization/Derealization Symptoms","Around one fifth of all pregnant women in the US report antenatal depressive symptoms (ADS). A recent study on the mental health of young mothers in Bolivia found that ADS predict not only postnatal depression but also postnatal depersonalization/derealization symptoms (PDDS). The present study investigated whether ADS also predict PDDS in mothers in the US. Therefore, we conducted a prospective survey study with 124 pregnant women in San Diego County, CA, and in Minneapolis, MN. Participants were recruited in week 20 of pregnancy. ADS were measured using the Beck Depression Inventory (BDI). Six months after hospital discharge, participants completed a self-report questionnaire for PDDS using the Dissociative Experiences Scale (DES). 20.1% of the women reported ADS above the cut-off (BDI score ≥ 18) and 7.4% reported having dissociative experiences in the six months after birth (DES score ≥ 20). ADS scores significantly predicted PDDS, with higher ADS scores indicating higher PDDS scores. Consistent with findings in Bolivian mothers, the present findings in American mothers suggest that ADS might be a relevant etiological factor for PDDS.","text/2a.html_decision1",89,6290,4,5,2371,83,3977,1,1679,62329,21614
2,4,25,15,0,"non-significant","Therapist and Patient Age Effects on Dropout and Residual Symptoms in Borderline Personality Disorder","Borderline personality disorder (BPD) is associated with high levels of psychological strain. Residual symptoms after treatment and dropout rates are especially high in young adults. Evidence from other personality disorders suggests that in this age group, the therapist’s experience is negatively associated with treatment outcome. Thus, in the present study, we examined whether young adults (18-30 years) with BPD treated by more experienced therapists were more likely (1) to report elevated symptoms at post-treatment and (2) to drop out of therapy. In total, 145 individuals diagnosed with BPD underwent a standardized and manualized 18-week cognitive behavior therapy intervention administered by 53 therapists (therapist experience: M=21.4; SD=7.4). Symptom severity was assessed using the Borderline Symptom List 23 (BSL-23) at baseline and after treatment. Linear and logistic multilevel models were fitted to account for the nested structure of the data. Twenty-one individuals dropped out during therapy. Young adults with BPD treated by more experienced therapists were not significantly more likely to report elevated symptoms at post-treatment or to drop out. The results indicate that young individuals with BPD do not benefit more from therapy with less experienced psychotherapists, either in terms of symptom reduction or treatment dropout.","text/15b.html_decision1",90,3897,5,6,2889,90,7463,0,9401,56382,NA
2,5,31,7,0,"non-significant","Emotion Recognition Bias and Satisfaction with Intimate Relationships in Bipolar II Disorder","Emotion recognition bias is consistently found in affective disorders. This observational study explored whether emotion recognition bias for ambiguous facial expressions is linked to satisfaction with intimate relationships in individuals diagnosed with bipolar II disorder. A total of 144 patients with bipolar II disorder who reported being in an intimate relationship (married, cohabiting, engaged, or dating) completed the Emotional Bias Task (EBT) and the Relationship Assessment Scale (RAS). EBT scores were not significantly correlated with RAS scores. The results indicate that emotion recognition for ambiguous facial expressions is not associated with self-reported relationship quality in patients with bipolar II disorder.","text/7b.html_decision1",79,5205,4,5,7859,69,3973,1,3209,16845,15849
2,6,38,5,1,"significant","Gender Differences in Long-Term QoL after CBT for OCD","Cognitive behavior therapy (CBT) is considered the first-line psychotherapeutic treatment for obsessive-compulsive disorder (OCD). In psychotherapeutic treatments of other disorders, it has been shown that women benefit more from CBT than do men in terms of long-term quality of life (QoL). This observational study examined whether women with OCD show a greater benefit from CBT five years after treatment completion. Participants were 84 men and 87 women with a previous diagnosis of OCD who had completed CBT five years earlier. QoL was assessed using the McGill Quality of Life Questionnaire (MQOL). Symptom severity at the end of therapy was assessed using the Yale–Brown Obsessive Compulsive Scale (Y-BOCS). Men reported significantly lower QoL compared to women, and this difference remained significant when QoL scores were adjusted for symptom severity at the end of therapy. Physical QoL showed the most pronounced gender difference. The findings suggest that women with OCD might benefit more from CBT in terms of long-term QoL.","text/5a.html_decision1",89,1629,5,6,1936,90,11404,0,1446,42268,NA
2,7,44,8,0,"non-significant","Panic Disorder, Cognitive Bias, and Tinnitus","Individuals with panic disorder have an elevated risk of developing permanent tinnitus compared to healthy adults. Evidence from a large cohort study indicated that cognitive biases might play a role in the emergence of tinnitus. Since cognitive biases are common in individuals with panic disorder, we examined whether cognitive biases in panic disorder predict the emergence of tinnitus. The present prospective cohort study included 123 individuals with panic disorder. At baseline, participants completed measures of cognitive bias and were assessed by a clinician regarding anxiety symptoms and tinnitus. The assessment of anxiety symptoms and tinnitus was repeated at 3-year follow-up. Hazard ratios were estimated and logistic regression analyses were computed. At 3-year follow-up, 12% of participants reported a newly emerged tinnitus. Cognitive biases did not significantly predict the emergence of tinnitus. This study suggests that addressing cognitive biases in psychotherapy will likely not yield beneficial preventive effects for tinnitus emergence in patients with panic disorder.","text/8b.html_decision1",78,3435,3,4,3451,71,6248,1,1584,32507,19908
2,8,51,4,0,"non-significant","Therapists’ Empathy and Symptom Severity Bias in the First Therapy Session","A recent study on panic disorder found that patients rated their own symptoms as significantly lower when the study therapist showed low empathy, as compared to high empathy, in the first therapy session. The present observational study investigated whether study therapists’ empathy also predicts symptom severity in individuals diagnosed with major depression (MD). A total of 153 individuals diagnosed with MD completed the Beck Depression Inventory during the first therapy session. Empathy in the 56 responsible study therapists was measured using the Toronto Empathy Questionnaire (TEQ). The therapists’ TEQ scores did not significantly predict patients’ BDI scores during first therapy session. Patients with low-empathy therapists reported symptom levels comparable to patients with high-empathy therapists. The findings demonstrate that baseline measures of symptom severity in MD might not be biased by  lack of empathy of the study therapist.","text/4b.html_decision1",77,10355,4,5,2723,72,4972,1,50256,31138,16262
2,9,58,6,1,"significant","Stressful Life Events and Symptom Deterioration in Adult ADHD","This longitudinal study investigated whether stressful life events in young adulthood predict symptom deterioration in attention-deficit/hyperactivity disorder (ADHD). A total of 164 university students diagnosed with ADHD during childhood participated in our prospective study. Participants completed measures on ADHD symptom severity and stressful life events at baseline (t0: age 18-20), 5-year follow-up (t1: age 23-25), and 9-year follow-up (t2: age 27-29). Symptom deterioration was defined as the difference in symptom severity between two measurement time points. Stressful life events at t0 and t1 significantly predicted symptom deterioration at t1 and t2, respectively. The findings support evidence from a recent qualitative study that stressful life events might be linked to subsequent symptom deterioration in ADHD during young adulthood.","text/6a.html_decision1",89,6521,4,5,2666,90,3043,1,1635,43834,21409
2,10,65,11,1,"significant","Socioeconomic Adaptation Theory of Rehabilitation in Schizophrenia","According to the Socioeconomic Adaptation Theory of Rehabilitation (SAToR), individuals with higher socioeconomic status (SES) tend to benefit more from psychiatric rehabilitation than individuals with lower SES. In line with the SAToR, we hypothesized that higher SES is associated with a greater reduction in symptom severity in patients with schizophrenia. We conducted an observational study over the course of a 12-month rehabilitation program, encompassing 146 participants with schizophrenia who were newly admitted to a psychiatric rehabilitation clinic. Symptom severity was measured using the Positive and Negative Syndrome Scale (PANSS). A longitudinal multilevel model was computed to predict rates of change in symptom severity. In line with our hypothesis, symptom change was significantly predicted by SES. This finding suggests that consistent with the SAToR, individuals with higher socioeconomic status (SES) tend to benefit more from rehabilitation of schizophrenia than individuals with lower SES.","text/11a.html_decision1",92,4648,5,6,2078,93,1902,1,1484,47559,16413
2,11,72,1,1,"significant","Efficacy of MBCT for Emotion Regulation in Bulimia Nervosa","Eating disorders are characterized by emotional, behavioral, and physiological dysregulation in relation to food intake and self-identity. Several studies have documented positive effects of mindfulness-based interventions in the treatment of eating disorders, and systematic reviews have indicated emotion regulation as a specific mechanism of mindfulness-based interventions. Hence, we hypothesized that low emotion regulation skills in individuals with bulimia nervosa (BN) might be improved by mindfulness-based cognitive therapy (MBCT). A total of 129 women diagnosed with BN received group MBCT. The Courtauld Emotional Control Scale (CECS) was applied pre- and post-intervention and an ANOVA was conducted. A significant interaction effect emerged, indicating an improvement in emotion regulation over time, especially in patients reporting lower emotion regulation skills at baseline. Mindfulness-based interventions might be useful to tackle aspects of dysregulation in eating disorders.","text/1a.html_decision1",87,6478,4,5,2175,91,6263,1,2878,36297,12609
2,12,79,14,1,"significant","Heart Rate Variability and Therapy Dropout in Arachnophobia","Exposure therapy is an efficacious treatment in arachnophobia. However, several studies have documented high dropout rates. A recent study found that low high-frequency heart rate variability (HF-HRV), a reliable physiological indicator of parasympathetic activation, predicted dropout from exposure-focused therapy in patients with agoraphobia. Therefore, we investigated whether low pre-treatment HF-HRV predicts therapy dropout in individuals with arachnophobia. A total of 146 patients with arachnophobia underwent a standardized and manualized 12-week treatment focusing on exposure in vivo. Logistic regression models were fitted. Forty-two patients dropped out during treatment. Patients with lower pre-treatment levels of HF-HRV were significantly more likely to drop out from exposure-focused treatment. The findings suggest that in line with individuals with agoraphobia, spider-phobic individuals with low HF-HRV may benefit from treatment options aimed at increasing HF-HRV to avoid high dropout rates.","text/14a.html_decision1",90,2785,5,6,1812,89,1996,0,1723,37205,NA
2,13,85,12,1,"significant","Efficacy of Behavioral Activation Depending on Age in Generalized Anxiety Disorder","Generalized anxiety disorder (GAD) is one of the most prevalent mental illnesses worldwide. Behavioral activation (BA), as a third-wave behavioral therapy, is consistently found to be an efficacious treatment option for major depressive disorder (MDD). In addition to its role in treating MDD, BA may be beneficial in terms of alleviating anxiety in GAD. However, little is known about whether BA reduces anxiety across the lifespan, as BA shows a high age-sensitive efficacy in patients with MDD, with younger patients benefiting more from BA compared to older patients. Therefore, the present study analyzed whether age is associated with the efficacy of BA regarding anxiety reduction. The sample comprised 163 individuals with GAD, who participated at two measurement time points (baseline and 6-month follow-up). The mean age was 39.3 years (SD = 9.7) and age was normally distributed. GAD symptom severity was examined using the Generalized Anxiety Disorder Scale-7 (GAD-7). GAD-7 scores were significantly reduced at follow-up. Furthermore, the effect of BA on symptom reduction was significantly associated with age, with younger patients benefiting more from BA than older patients. Our findings suggest that BA is also relevant for GAD. Moreover, comparable to depression, younger people show stronger effects of BA in GAD.","text/12a.html_decision1",91,2716,5,6,3320,91,1390,0,1190,32471,NA
2,14,91,13,0,"non-significant","Deficits in Defensive Reactivity and QoL in Antisocial Personality Disorder","There is growing evidence of deficits in defensive reactivity (indexed by the startle blink reflex) in individuals diagnosed with antisocial personality disorder (ASPD). However, to date, no study has examined the role of defensive reactivity in the quality of life (QoL) of individuals with ASPD. In the current study, we therefore explored whether the startle blink reflex is negatively associated with QoL in 143 individuals diagnosed with ASPD. Defensive reactivity was measured using a fear-potentiated startle reflex test. To assess QoL, participants completed the Short Form (36) Health Survey (SF-36). Startle blink reflex potentiation deficits during aversive picture viewing deficits were common in the sample (62.3%). Blink reflex potentiation was not significantly associated with QoL. In sum, these findings provide no further evidence that deficits in defensive reactivity are linked to poor QoL in ASPD.","text/13b.html_decision1",67,3345,3,4,4437,51,11862,1,2641,42760,23208
2,15,98,9,0,"non-significant","Behavioral Activation and Working Memory Capacity in MDD","Several studies have documented positive effects of behavioral activation therapy (BAT) on stress reduction in persons with major depressive disorder (MDD). Two recent studies reported that the efficacy of BAT in terms of stress reduction was mediated by fluid intelligence. However, a neuroscientific study suggested that this mediation might be attributable to a shared functional area between stress regulation and working memory in the hypothalamus. Therefore, in this paper, we explored whether working memory capacity mediates the efficacy of BAT regarding stress reduction in 145 individuals diagnosed with MDD. At baseline, we assessed working memory capacity using an n-back task (2/3-back) and fluid intelligence using the Culture Fair Intelligence Test (CFIT). Stress was assessed using the Perceived Stress Scale (PSS-10) at baseline and after 14 weekly sessions of BAT. A SEM model was estimated to evaluate mediation. In our SEM model, significant stress reduction after BAT was not significantly mediated either by working memory capacity or by fluid intelligence. The findings indicate that the efficacy of BAT regarding stress reduction is not mediated by working memory capacity or by other aspects of fluid intelligence, potentially ruling out a shared functional area in the hypothalamus.","text/9b.html_decision1",80,9143,4,5,6710,74,3879,1,2479,53260,29657
2,16,105,16,0,"non-significant","Contrast Avoidance and Residual Symptoms in Patients with GAD after CBT","The contrast avoidance model assumes that rather than the avoidance of negative affect, the avoidance of strong emotional contrasts is a central component of generalized anxiety disorder (GAD). Several experimental studies have demonstrated evidence to support this theoretical framework, but no study to date has investigated whether higher pre-treatment levels of contrast avoidance predict higher post-treatment residual symptoms following cognitive behavior therapy (CBT), when controlling for baseline symptom severity. In the present study, 128 patients with GAD underwent a 15-week CBT intervention focusing on worry exposure. Both GAD symptom severity and emotional contrast avoidance severity were assessed at baseline and at follow-up. There was no significant association between contrast avoidance at baseline and residual symptoms at follow-up, even when controlling for baseline symptom severity. The findings of this study provide no evidence that contrast avoidance may influence treatment efficacy in GAD.","text/16b.html_decision1",84,5494,5,6,4583,84,2396,0,2235,24595,NA
3,1,5,15,0,"non-significant","Therapist and Patient Age Effects on Dropout and Residual Symptoms in Borderline Personality Disorder","Borderline personality disorder (BPD) is associated with high levels of psychological strain. Residual symptoms after treatment and dropout rates are especially high in young adults. Evidence from other personality disorders suggests that in this age group, the therapist’s experience is negatively associated with treatment outcome. Thus, in the present study, we examined whether young adults (18-30 years) with BPD treated by more experienced therapists were more likely (1) to report elevated symptoms at post-treatment and (2) to drop out of therapy. In total, 145 individuals diagnosed with BPD underwent a standardized and manualized 18-week cognitive behavior therapy intervention administered by 53 therapists (therapist experience: M=21.4; SD=7.4). Symptom severity was assessed using the Borderline Symptom List 23 (BSL-23) at baseline and after treatment. Linear and logistic multilevel models were fitted to account for the nested structure of the data. Twenty-one individuals dropped out during therapy. Young adults with BPD treated by more experienced therapists were not significantly more likely to report elevated symptoms at post-treatment or to drop out. The results indicate that young individuals with BPD do not benefit more from therapy with less experienced psychotherapists, either in terms of symptom reduction or treatment dropout.","text/15b.html_decision1",31,8352,4,5,5892,49,9770,1,11519,58144,4342
3,2,12,12,1,"significant","Efficacy of Behavioral Activation Depending on Age in Generalized Anxiety Disorder","Generalized anxiety disorder (GAD) is one of the most prevalent mental illnesses worldwide. Behavioral activation (BA), as a third-wave behavioral therapy, is consistently found to be an efficacious treatment option for major depressive disorder (MDD). In addition to its role in treating MDD, BA may be beneficial in terms of alleviating anxiety in GAD. However, little is known about whether BA reduces anxiety across the lifespan, as BA shows a high age-sensitive efficacy in patients with MDD, with younger patients benefiting more from BA compared to older patients. Therefore, the present study analyzed whether age is associated with the efficacy of BA regarding anxiety reduction. The sample comprised 163 individuals with GAD, who participated at two measurement time points (baseline and 6-month follow-up). The mean age was 39.3 years (SD = 9.7) and age was normally distributed. GAD symptom severity was examined using the Generalized Anxiety Disorder Scale-7 (GAD-7). GAD-7 scores were significantly reduced at follow-up. Furthermore, the effect of BA on symptom reduction was significantly associated with age, with younger patients benefiting more from BA than older patients. Our findings suggest that BA is also relevant for GAD. Moreover, comparable to depression, younger people show stronger effects of BA in GAD.","text/12a.html_decision1",12,2593,6,7,2979,15,6129,0,4881,37185,NA
3,3,18,1,1,"significant","Efficacy of MBCT for Emotion Regulation in Bulimia Nervosa","Eating disorders are characterized by emotional, behavioral, and physiological dysregulation in relation to food intake and self-identity. Several studies have documented positive effects of mindfulness-based interventions in the treatment of eating disorders, and systematic reviews have indicated emotion regulation as a specific mechanism of mindfulness-based interventions. Hence, we hypothesized that low emotion regulation skills in individuals with bulimia nervosa (BN) might be improved by mindfulness-based cognitive therapy (MBCT). A total of 129 women diagnosed with BN received group MBCT. The Courtauld Emotional Control Scale (CECS) was applied pre- and post-intervention and an ANOVA was conducted. A significant interaction effect emerged, indicating an improvement in emotion regulation over time, especially in patients reporting lower emotion regulation skills at baseline. Mindfulness-based interventions might be useful to tackle aspects of dysregulation in eating disorders.","text/1a.html_decision1",41,3897,2,3,3769,31,3236,1,2693,29091,3174
3,4,25,6,0,"non-significant","Stressful Life Events and Symptom Deterioration in Adult ADHD","This longitudinal study investigated whether stressful life events in young adulthood predict symptom deterioration in attention-deficit/hyperactivity disorder (ADHD). A total of 164 university students diagnosed with ADHD during childhood participated in our prospective study. Participants completed measures on ADHD symptom severity and stressful life events at baseline (t0: age 18-20), 5-year follow-up (t1: age 23-25) and 9-year follow-up (t2: age 27-29). Symptom deterioration was defined as the difference in symptom severity between two measurement time points. Stressful life events at t0 and t1 did not significantly predict symptom deterioration at t1 and t2, respectively. The findings provide longitudinal evidence that stressful life events might not be linked to subsequent symptom deterioration in ADHD during young adulthood.","text/6b.html_decision1",24,2559,4,5,3540,12,2447,1,1383,37198,21030
3,5,32,2,1,"significant","Antenatal Depressive Symptoms Predict Postnatal Depersonalization/Derealization Symptoms","Around one fifth of all pregnant women in the US report antenatal depressive symptoms (ADS). A recent study on the mental health of young mothers in Bolivia found that ADS predict not only postnatal depression but also postnatal depersonalization/derealization symptoms (PDDS). The present study investigated whether ADS also predict PDDS in mothers in the US. Therefore, we conducted a prospective survey study with 124 pregnant women in San Diego County, CA, and in Minneapolis, MN. Participants were recruited in week 20 of pregnancy. ADS were measured using the Beck Depression Inventory (BDI). Six months after hospital discharge, participants completed a self-report questionnaire for PDDS using the Dissociative Experiences Scale (DES). 20.1% of the women reported ADS above the cut-off (BDI score ≥ 18) and 7.4% reported having dissociative experiences in the six months after birth (DES score ≥ 20). ADS scores significantly predicted PDDS, with higher ADS scores indicating higher PDDS scores. Consistent with findings in Bolivian mothers, the present findings in American mothers suggest that ADS might be a relevant etiological factor for PDDS.","text/2a.html_decision1",65,2483,4,5,3264,71,2172,1,1262,43480,11467
3,6,39,11,0,"non-significant","Socioeconomic Adaptation Theory of Rehabilitation in Schizophrenia","According to the Socioeconomic Adaptation Theory of Rehabilitation (SAToR), individuals with higher socioeconomic status (SES) tend to benefit more from psychiatric rehabilitation than individuals with lower SES. In line with the SAToR, we hypothesized that higher SES is associated with a greater reduction in symptom severity in patients with schizophrenia. We conducted an observational study over the course of a 12-month rehabilitation program, encompassing 146 participants with schizophrenia who were newly admitted to a psychiatric rehabilitation clinic. Symptom severity was measured using the Positive and Negative Syndrome Scale (PANSS). A longitudinal multilevel model was computed to predict rates of change in symptom severity. Contrary to our hypothesis, symptom change was not significantly predicted by SES. This finding suggests that contrary to the SAToR, individuals with higher socioeconomic status (SES) likely do not benefit more from rehabilitation of schizophrenia than individuals with lower SES.","text/11b.html_decision1",40,2260,5,6,3112,23,1914,1,1583,41128,13513
3,7,46,4,1,"significant","Therapists’ Empathy and Symptom Severity Bias in the First Therapy Session","A recent study on panic disorder found that patients rated their own symptoms as significantly lower when the study therapist showed low empathy, as compared to high empathy, in the first therapy session. The present observational study investigated whether study therapists’ empathy also predicts symptom severity in individuals diagnosed with major depression (MD). A total of 153 individuals diagnosed with MD completed the Beck Depression Inventory during the first therapy session. Empathy in the 56 responsible study therapists was measured using the Toronto Empathy Questionnaire (TEQ). The therapists’ TEQ scores significantly predicted patients’ BDI scores during the first therapy session. Patients with low-empathy therapists reported significantly fewer symptoms than did patients with high-empathy therapists. The findings confirm that baseline measures of symptom severity in MD might be biased by lack of empathy of the study therapist.","text/4a.html_decision1",49,5240,0,1,4322,31,2164,1,1977,50461,15474
3,8,53,13,1,"significant","Deficits in Defensive Reactivity and QoL in Antisocial Personality Disorder","There is growing evidence of deficits in defensive reactivity (indexed by the startle blink reflex) in individuals diagnosed with antisocial personality disorder (ASPD). However, to date, no study has examined the role of defensive reactivity in the quality of life (QoL) of individuals with ASPD. In the current study, we therefore explored whether the startle blink reflex is negatively associated with QoL in 143 individuals diagnosed with ASPD. Defensive reactivity was measured using a fear-potentiated startle reflex test. To assess QoL, participants completed the Short Form (36) Health Survey (SF-36). Startle blink reflex potentiation deficits during aversive picture viewing were common in the sample (62.3%). Blink reflex potentiation was negatively and significantly associated with QoL. In sum, these findings provide clear evidence that deficits in defensive reactivity are linked to poor QoL in ASPD.","text/13a.html_decision1",14,2319,5,6,2800,30,1927,1,1308,37231,6423
3,9,60,7,0,"non-significant","Emotion Recognition Bias and Satisfaction with Intimate Relationships in Bipolar II Disorder","Emotion recognition bias is consistently found in affective disorders. This observational study explored whether emotion recognition bias for ambiguous facial expressions is linked to satisfaction with intimate relationships in individuals diagnosed with bipolar II disorder. A total of 144 patients with bipolar II disorder who reported being in an intimate relationship (married, cohabiting, engaged, or dating) completed the Emotional Bias Task (EBT) and the Relationship Assessment Scale (RAS). EBT scores were not significantly correlated with RAS scores. The results indicate that emotion recognition for ambiguous facial expressions is not associated with self-reported relationship quality in patients with bipolar II disorder.","text/7b.html_decision1",38,2141,4,5,3230,29,2144,1,949,38177,10260
3,10,67,10,0,"non-significant","Polygenic Risk Scores and Heart Rate during Exposure in Patients with Agoraphobia","Polygenic risk scores (PRS) describe individual risks for specific diseases based on genetic information from multiple loci. Previous studies suggest that PRS may predict differences in the physiological activation of individuals with agoraphobia. In this study, we examined whether the possibility to predict affected individuals’ heart rate by their PRS depends on the type of exposure trial. We postulated that PRS would predict heart rate within in-vivo as well as in-virtuo trials. Data were analyzed from 132 individuals diagnosed with agoraphobia who underwent either in-vivo (N = 63) or in-virtuo (N = 69) exposure. Contrary to our hypothesis, heart rate was not significantly predicted by PRS in either the in-vivo or the in-virtuo setting. The results of this study suggest that while PRS provide useful diagnostic information for an individual’s risk of agoraphobia, they may not provide useful information for predicting physiological reactions in exposure settings.","text/10b.html_decision1",48,3179,2,3,5209,33,1818,1,1461,43988,9672
3,11,74,14,0,"non-significant","Heart Rate Variability and Therapy Dropout in Arachnophobia","Exposure therapy is an efficacious treatment in arachnophobia. However, several studies have documented high dropout rates. A recent study found that low high-frequency heart rate variability (HF-HRV), a reliable physiological indicator of parasympathetic activation, predicted dropout from exposure-focused therapy in patients with agoraphobia. Therefore, we investigated whether low pre-treatment HF-HRV predicts therapy dropout in individuals with arachnophobia. A total of 146 patients with arachnophobia underwent a standardized and manualized 12-week treatment focusing on exposure in vivo. Logistic regression models were fitted. Forty-two patients dropped out during treatment. HF-HRV was not significantly associated with dropout from exposure-focused treatment. The findings suggest that contrary to individuals with agoraphobia, spider-phobic individuals with low HF-HRV may not benefit  from treatment options aimed at increasing HF-HRV to avoid high dropout rates.","text/14b.html_decision1",12,2584,6,7,2466,11,1998,1,1887,62946,11158
3,12,81,9,0,"non-significant","Behavioral Activation and Working Memory Capacity in MDD","Several studies have documented positive effects of behavioral activation therapy (BAT) on stress reduction in persons with major depressive disorder (MDD). Two recent studies reported that the efficacy of BAT in terms of stress reduction was mediated by fluid intelligence. However, a neuroscientific study suggested that this mediation might be attributable to a shared functional area between stress regulation and working memory in the hypothalamus. Therefore, in this paper, we explored whether working memory capacity mediates the efficacy of BAT regarding stress reduction in 145 individuals diagnosed with MDD. At baseline, we assessed working memory capacity using an n-back task (2/3-back) and fluid intelligence using the Culture Fair Intelligence Test (CFIT). Stress was assessed using the Perceived Stress Scale (PSS-10) at baseline and after 14 weekly sessions of BAT. A SEM model was estimated to evaluate mediation. In our SEM model, significant stress reduction after BAT was not significantly mediated either by working memory capacity or by fluid intelligence. The findings indicate that the efficacy of BAT regarding stress reduction is not mediated by working memory capacity or by other aspects of fluid intelligence, potentially ruling out a shared functional area in the hypothalamus.","text/9b.html_decision1",82,2292,5,6,2795,74,2196,1,1628,52327,7577
3,13,88,3,1,"significant","Intolerance of Uncertainty in PTSD","Several studies have found that prolonged exposure therapy effectively reduces post-traumatic stress disorder (PTSD) symptoms. Since intolerance of uncertainty (IU), as a cognitive mechanism, has been consistently found to be relevant for both the emergence and maintenance of PTSD, we hypothesized that reductions in IU would predict subsequent reductions in PTSD symptoms. Therefore, we conducted a prospective survey study that accompanied prolonged exposure therapy in 165 PTSD patients. Participants completed measures of PTSD symptoms and IU at the first therapy session (T0) and six (T1), 12 (T2), and 18 weeks later (T3). Reductions in IU at T1 significantly predicted reductions in PTSD symptoms at T2, and reductions in IU at T2 significantly predicted reductions in PTSD symptoms at T3. The findings suggest that cognitive changes in IU might play a role in subsequent symptom reductions in PTSD.","text/3a.html_decision1",76,2175,5,6,2388,66,1997,1,1411,61365,6281
3,14,95,5,0,"non-significant","Gender Differences in Long-Term QoL after CBT for OCD","Cognitive behavior therapy (CBT) is considered the first-line psychotherapeutic treatment for obsessive-compulsive disorder (OCD). In psychotherapeutic treatments of other disorders, it has been shown that women benefit more from CBT than do men in terms of long-term quality of life (QoL). This observational study examined whether women with OCD show a greater benefit from CBT five years after treatment completion. Participants were 84 men and 87 women with a previous diagnosis of OCD who had completed CBT five years earlier. QoL was assessed using the McGill Quality of Life Questionnaire (MQOL). Symptom severity at the end of therapy was assessed using the Yale–Brown Obsessive Compulsive Scale (Y-BOCS). Men did not differ significantly in QoL compared to women, and there was no significant difference when QoL scores were adjusted for symptom severity at the end of therapy. No differences were identified for any facet of QoL. The findings suggest that women with OCD do not benefit more from CBT in terms of long-term QoL.","text/5b.html_decision1",80,3738,4,5,2467,71,3084,1,1253,37493,6571
3,15,102,16,1,"significant","Contrast Avoidance and Residual Symptoms in Patients with GAD after CBT","The contrast avoidance model assumes that rather than the avoidance of negative affect, the avoidance of strong emotional contrasts is a central component of generalized anxiety disorder (GAD). Several experimental studies have demonstrated evidence to support this theoretical framework, but no study to date has investigated whether higher pre-treatment levels of contrast avoidance predict higher post-treatment residual symptoms following cognitive behavior therapy (CBT), when controlling for baseline symptom severity. In the present study, 128 patients with GAD underwent a 15-week CBT intervention focusing on worry exposure. Both GAD symptom severity and emotional contrast avoidance severity were assessed at baseline and at follow-up. Individuals who reported higher contrast avoidance at baseline were significantly more likely to report higher residual symptoms at follow-up, even when controlling for baseline symptom severity. The findings of this study provide evidence for an independent role of contrast avoidance in treatment efficacy in GAD.","text/16a.html_decision1",63,2440,5,6,2809,66,2050,1,1442,49060,4755
3,16,109,8,1,"significant","Panic Disorder, Cognitive Bias, and Tinnitus","Individuals with panic disorder have an elevated risk of developing permanent tinnitus compared to healthy adults. Evidence from a large cohort study indicated that cognitive biases might play a role in the emergence of tinnitus. Since cognitive biases are common in individuals with panic disorder, we examined whether cognitive biases in panic disorder predict the emergence of tinnitus. The present prospective cohort study included 123 individuals with panic disorder. At baseline, participants completed measures of cognitive bias and were assessed by a clinician regarding anxiety symptoms and tinnitus. The assessment of anxiety symptoms and tinnitus was repeated at 3-year follow-up. Hazard ratios were estimated and logistic regression analyses were computed. At 3-year follow-up, 12% of participants reported a newly emerged tinnitus. Cognitive biases significantly predicted the emergence of tinnitus. This study suggests that addressing cognitive biases in psychotherapy might yield beneficial preventive effects for tinnitus emergence in patients with panic disorder.","text/8a.html_decision1",12,1975,6,7,2731,18,2976,1,1449,37948,6331
4,1,5,10,0,"non-significant","Polygenic Risk Scores and Heart Rate during Exposure in Patients with Agoraphobia","Polygenic risk scores (PRS) describe individual risks for specific diseases based on genetic information from multiple loci. Previous studies suggest that PRS may predict differences in the physiological activation of individuals with agoraphobia. In this study, we examined whether the possibility to predict affected individuals’ heart rate by their PRS depends on the type of exposure trial. We postulated that PRS would predict heart rate within in-vivo as well as in-virtuo trials. Data were analyzed from 132 individuals diagnosed with agoraphobia who underwent either in-vivo (N = 63) or in-virtuo (N = 69) exposure. Contrary to our hypothesis, heart rate was not significantly predicted by PRS in either the in-vivo or the in-virtuo setting. The results of this study suggest that while PRS provide useful diagnostic information for an individual’s risk of agoraphobia, they may not provide useful information for predicting physiological reactions in exposure settings.","text/10b.html_decision1",79,12594,4,5,6915,77,14406,1,17873,69190,20221
4,2,12,2,1,"significant","Antenatal Depressive Symptoms Predict Postnatal Depersonalization/Derealization Symptoms","Around one fifth of all pregnant women in the US report antenatal depressive symptoms (ADS). A recent study on the mental health of young mothers in Bolivia found that ADS predict not only postnatal depression but also postnatal depersonalization/derealization symptoms (PDDS). The present study investigated whether ADS also predict PDDS in mothers in the US. Therefore, we conducted a prospective survey study with 124 pregnant women in San Diego County, CA, and in Minneapolis, MN. Participants were recruited in week 20 of pregnancy. ADS were measured using the Beck Depression Inventory (BDI). Six months after hospital discharge, participants completed a self-report questionnaire for PDDS using the Dissociative Experiences Scale (DES). 20.1% of the women reported ADS above the cut-off (BDI score ≥ 18) and 7.4% reported having dissociative experiences in the six months after birth (DES score ≥ 20). ADS scores significantly predicted PDDS, with higher ADS scores indicating higher PDDS scores. Consistent with findings in Bolivian mothers, the present findings in American mothers suggest that ADS might be a relevant etiological factor for PDDS.","text/2a.html_decision1",88,3654,5,6,3180,83,5653,1,8587,74577,26644
4,3,19,13,0,"non-significant","Deficits in Defensive Reactivity and QoL in Antisocial Personality Disorder","There is growing evidence of deficits in defensive reactivity (indexed by the startle blink reflex) in individuals diagnosed with antisocial personality disorder (ASPD). However, to date, no study has examined the role of defensive reactivity in the quality of life (QoL) of individuals with ASPD. In the current study, we therefore explored whether the startle blink reflex is negatively associated with QoL in 143 individuals diagnosed with ASPD. Defensive reactivity was measured using a fear-potentiated startle reflex test. To assess QoL, participants completed the Short Form (36) Health Survey (SF-36). Startle blink reflex potentiation deficits during aversive picture viewing deficits were common in the sample (62.3%). Blink reflex potentiation was not significantly associated with QoL. In sum, these findings provide no further evidence that deficits in defensive reactivity are linked to poor QoL in ASPD.","text/13b.html_decision1",39,4855,4,5,3053,29,5492,1,12031,45755,20860
4,4,26,3,1,"significant","Intolerance of Uncertainty in PTSD","Several studies have found that prolonged exposure therapy effectively reduces post-traumatic stress disorder (PTSD) symptoms. Since intolerance of uncertainty (IU), as a cognitive mechanism, has been consistently found to be relevant for both the emergence and maintenance of PTSD, we hypothesized that reductions in IU would predict subsequent reductions in PTSD symptoms. Therefore, we conducted a prospective survey study that accompanied prolonged exposure therapy in 165 PTSD patients. Participants completed measures of PTSD symptoms and IU at the first therapy session (T0) and six (T1), 12 (T2), and 18 weeks later (T3). Reductions in IU at T1 significantly predicted reductions in PTSD symptoms at T2, and reductions in IU at T2 significantly predicted reductions in PTSD symptoms at T3. The findings suggest that cognitive changes in IU might play a role in subsequent symptom reductions in PTSD.","text/3a.html_decision1",86,6416,5,6,2797,89,2878,0,12904,40246,NA
4,5,32,7,1,"significant","Emotion Recognition Bias and Satisfaction with Intimate Relationships in Bipolar II Disorder","Emotion recognition bias is consistently found in affective disorders. This observational study explored whether emotion recognition bias for ambiguous facial expressions is linked to satisfaction with intimate relationships in individuals diagnosed with bipolar II disorder. A total of 144 patients with bipolar II disorder who reported being in an intimate relationship (married, cohabiting, engaged, or dating) completed the Emotional Bias Task (EBT) and the Relationship Assessment Scale (RAS). EBT scores were significantly and negatively correlated with RAS scores. The results indicate that emotion recognition for ambiguous facial expressions is negatively correlated with self-reported relationship quality in patients with bipolar II disorder.","text/7a.html_decision1",70,3165,4,5,4340,75,3189,1,11806,46762,64113
4,6,39,4,0,"non-significant","Therapists’ Empathy and Symptom Severity Bias in the First Therapy Session","A recent study on panic disorder found that patients rated their own symptoms as significantly lower when the study therapist showed low empathy, as compared to high empathy, in the first therapy session. The present observational study investigated whether study therapists’ empathy also predicts symptom severity in individuals diagnosed with major depression (MD). A total of 153 individuals diagnosed with MD completed the Beck Depression Inventory during the first therapy session. Empathy in the 56 responsible study therapists was measured using the Toronto Empathy Questionnaire (TEQ). The therapists’ TEQ scores did not significantly predict patients’ BDI scores during first therapy session. Patients with low-empathy therapists reported symptom levels comparable to patients with high-empathy therapists. The findings demonstrate that baseline measures of symptom severity in MD might not be biased by  lack of empathy of the study therapist.","text/4b.html_decision1",36,10108,5,6,2701,29,1938,1,2493,84387,37438
4,7,46,9,1,"significant","Behavioral Activation and Working Memory Capacity in MDD","Several studies have documented positive effects of behavioral activation therapy (BAT) on stress reduction in persons with major depressive disorder (MDD). Two recent studies reported that the efficacy of BAT in terms of stress reduction was mediated by fluid intelligence. However, a neuroscientific study suggested that this mediation might be attributable to a shared functional area between stress regulation and working memory in the hypothalamus. Therefore, in this paper, we explored whether working memory capacity mediates the efficacy of BAT regarding stress reduction in 145 individuals diagnosed with MDD. At baseline, we assessed working memory capacity using an n-back task (2/3-back) and fluid intelligence using the Culture Fair Intelligence Test (CFIT). Stress was assessed using the Perceived Stress Scale (PSS-10) at baseline and after 14 weekly sessions of BAT. A SEM model was estimated to evaluate mediation. In our SEM model, significant stress reduction after BAT was significantly mediated by working memory capacity but not by fluid intelligence. The findings demonstrate that the efficacy of BAT regarding stress reduction is mediated by working memory capacity but not by other aspects of fluid intelligence, possibly indicating a shared functional area between stress regulation and working memory.","text/9a.html_decision1",83,3065,4,5,3940,72,5353,1,3478,92212,13789
4,8,53,16,1,"significant","Contrast Avoidance and Residual Symptoms in Patients with GAD after CBT","The contrast avoidance model assumes that rather than the avoidance of negative affect, the avoidance of strong emotional contrasts is a central component of generalized anxiety disorder (GAD). Several experimental studies have demonstrated evidence to support this theoretical framework, but no study to date has investigated whether higher pre-treatment levels of contrast avoidance predict higher post-treatment residual symptoms following cognitive behavior therapy (CBT), when controlling for baseline symptom severity. In the present study, 128 patients with GAD underwent a 15-week CBT intervention focusing on worry exposure. Both GAD symptom severity and emotional contrast avoidance severity were assessed at baseline and at follow-up. Individuals who reported higher contrast avoidance at baseline were significantly more likely to report higher residual symptoms at follow-up, even when controlling for baseline symptom severity. The findings of this study provide evidence for an independent role of contrast avoidance in treatment efficacy in GAD.","text/16a.html_decision1",70,5009,3,4,2963,59,5367,0,12030,114594,NA
4,9,59,14,0,"non-significant","Heart Rate Variability and Therapy Dropout in Arachnophobia","Exposure therapy is an efficacious treatment in arachnophobia. However, several studies have documented high dropout rates. A recent study found that low high-frequency heart rate variability (HF-HRV), a reliable physiological indicator of parasympathetic activation, predicted dropout from exposure-focused therapy in patients with agoraphobia. Therefore, we investigated whether low pre-treatment HF-HRV predicts therapy dropout in individuals with arachnophobia. A total of 146 patients with arachnophobia underwent a standardized and manualized 12-week treatment focusing on exposure in vivo. Logistic regression models were fitted. Forty-two patients dropped out during treatment. HF-HRV was not significantly associated with dropout from exposure-focused treatment. The findings suggest that contrary to individuals with agoraphobia, spider-phobic individuals with low HF-HRV may not benefit  from treatment options aimed at increasing HF-HRV to avoid high dropout rates.","text/14b.html_decision1",81,3005,5,6,1838,76,3929,1,2996,61332,28514
4,10,66,6,1,"significant","Stressful Life Events and Symptom Deterioration in Adult ADHD","This longitudinal study investigated whether stressful life events in young adulthood predict symptom deterioration in attention-deficit/hyperactivity disorder (ADHD). A total of 164 university students diagnosed with ADHD during childhood participated in our prospective study. Participants completed measures on ADHD symptom severity and stressful life events at baseline (t0: age 18-20), 5-year follow-up (t1: age 23-25), and 9-year follow-up (t2: age 27-29). Symptom deterioration was defined as the difference in symptom severity between two measurement time points. Stressful life events at t0 and t1 significantly predicted symptom deterioration at t1 and t2, respectively. The findings support evidence from a recent qualitative study that stressful life events might be linked to subsequent symptom deterioration in ADHD during young adulthood.","text/6a.html_decision1",45,5699,4,5,3184,54,4596,1,2643,26937,4968
4,11,73,11,0,"non-significant","Socioeconomic Adaptation Theory of Rehabilitation in Schizophrenia","According to the Socioeconomic Adaptation Theory of Rehabilitation (SAToR), individuals with higher socioeconomic status (SES) tend to benefit more from psychiatric rehabilitation than individuals with lower SES. In line with the SAToR, we hypothesized that higher SES is associated with a greater reduction in symptom severity in patients with schizophrenia. We conducted an observational study over the course of a 12-month rehabilitation program, encompassing 146 participants with schizophrenia who were newly admitted to a psychiatric rehabilitation clinic. Symptom severity was measured using the Positive and Negative Syndrome Scale (PANSS). A longitudinal multilevel model was computed to predict rates of change in symptom severity. Contrary to our hypothesis, symptom change was not significantly predicted by SES. This finding suggests that contrary to the SAToR, individuals with higher socioeconomic status (SES) likely do not benefit more from rehabilitation of schizophrenia than individuals with lower SES.","text/11b.html_decision1",75,3795,4,5,4695,78,4149,1,1368,55351,23275
4,12,80,8,1,"significant","Panic Disorder, Cognitive Bias, and Tinnitus","Individuals with panic disorder have an elevated risk of developing permanent tinnitus compared to healthy adults. Evidence from a large cohort study indicated that cognitive biases might play a role in the emergence of tinnitus. Since cognitive biases are common in individuals with panic disorder, we examined whether cognitive biases in panic disorder predict the emergence of tinnitus. The present prospective cohort study included 123 individuals with panic disorder. At baseline, participants completed measures of cognitive bias and were assessed by a clinician regarding anxiety symptoms and tinnitus. The assessment of anxiety symptoms and tinnitus was repeated at 3-year follow-up. Hazard ratios were estimated and logistic regression analyses were computed. At 3-year follow-up, 12% of participants reported a newly emerged tinnitus. Cognitive biases significantly predicted the emergence of tinnitus. This study suggests that addressing cognitive biases in psychotherapy might yield beneficial preventive effects for tinnitus emergence in patients with panic disorder.","text/8a.html_decision1",50,2903,3,4,2802,53,4617,0,1960,55019,NA
4,13,86,15,1,"significant","Therapist and Patient Age Effects on Dropout and Residual Symptoms in Borderline Personality Disorder","Borderline personality disorder (BPD) is associated with high levels of psychological strain. Residual symptoms after treatment and dropout rates are especially high in young adults. Evidence from other personality disorders suggests that in this age group, the therapist’s experience is negatively associated with treatment outcome. Thus, in the present study, we examined whether young adults (18-30 years) with BPD treated by more experienced therapists were more likely (1) to report elevated symptoms at post-treatment and (2) to drop out of therapy. In total, 145 individuals diagnosed with BPD underwent a standardized and manualized 18-week cognitive behavior therapy intervention administered by 53 therapists (therapist experience: M=21.4; SD=7.4). Symptom severity was assessed using the Borderline Symptom List 23 (BSL-23) at baseline and after treatment. Linear and logistic multilevel models were fitted to account for the nested structure of the data. Twenty-one individuals dropped out during therapy. Young adults with BPD treated by more experienced therapists were significantly more likely to report both elevated symptoms at post-treatment and to drop out. The results indicate that young individuals with BPD benefit more from therapy with less experienced psychotherapists, both in terms of symptom reduction and treatment dropout.","text/15a.html_decision1",29,3775,4,5,3162,40,3739,1,1390,53973,19416
4,14,93,12,0,"non-significant","Efficacy of Behavioral Activation Depending on Age in Generalized Anxiety Disorder","Generalized anxiety disorder (GAD) is one of the most prevalent mental illnesses worldwide. Behavioral activation (BA), as a third-wave behavioral therapy, is consistently found to be an efficacious treatment option for major depressive disorder (MDD). In addition to its role in treating MDD, BA may be beneficial in terms of alleviating anxiety in GAD. However, little is known about whether BA reduces anxiety across the lifespan, as BA shows a high age-sensitive efficacy in patients with MDD, with younger patients benefiting more from BA compared to older patients. Therefore, the present study analyzed whether age is associated with the efficacy of BA regarding anxiety reduction. The sample comprised 163 individuals with GAD, who participated at two measurement time points (baseline and 6-month follow-up). The mean age was 39.3 years (SD = 9.7) and age was normally distributed. GAD symptom severity was examined using the Generalized Anxiety Disorder Scale-7 (GAD-7). GAD-7 scores were not significantly reduced at follow-up. Furthermore, we did not find significant differences in treatment efficacy between younger and older patients. Our findings suggest that BA might not always be an efficacious treatment option in GAD. Moreover, in contrast to depression, younger people do not show stronger effects of BA in GAD.","text/12b.html_decision1",60,3618,3,4,1904,66,3668,1,2021,61871,27059
4,15,100,1,0,"non-significant","Efficacy of MBCT for Emotion Regulation in Bulimia Nervosa","Eating disorders are characterized by emotional, behavioral, and physiological dysregulation in relation to food intake and self-identity. Several studies have documented positive effects of mindfulness-based interventions in the treatment of eating disorders, and systematic reviews have indicated emotion regulation as a specific mechanism of mindfulness-based interventions. Hence, we hypothesized that low emotion regulation skills in individuals with bulimia nervosa (BN) might be improved by mindfulness-based cognitive therapy (MBCT). A total of 129 women diagnosed with BN received group MBCT. The Courtauld Emotional Control Scale (CECS) was applied pre- and post-intervention and an ANOVA was conducted. We did not find a significant interaction effect: The data revealed no improvement in emotion regulation over time in patients reporting lower emotion regulation skills at baseline. Emotion regulation improvement might not be a mechanism of mindfulness-based interventions in eating disorders.","text/1b.html_decision1",29,2817,4,5,2283,30,2761,1,1720,66631,15509
4,16,107,5,0,"non-significant","Gender Differences in Long-Term QoL after CBT for OCD","Cognitive behavior therapy (CBT) is considered the first-line psychotherapeutic treatment for obsessive-compulsive disorder (OCD). In psychotherapeutic treatments of other disorders, it has been shown that women benefit more from CBT than do men in terms of long-term quality of life (QoL). This observational study examined whether women with OCD show a greater benefit from CBT five years after treatment completion. Participants were 84 men and 87 women with a previous diagnosis of OCD who had completed CBT five years earlier. QoL was assessed using the McGill Quality of Life Questionnaire (MQOL). Symptom severity at the end of therapy was assessed using the Yale–Brown Obsessive Compulsive Scale (Y-BOCS). Men did not differ significantly in QoL compared to women, and there was no significant difference when QoL scores were adjusted for symptom severity at the end of therapy. No differences were identified for any facet of QoL. The findings suggest that women with OCD do not benefit more from CBT in terms of long-term QoL.","text/5b.html_decision1",81,3729,5,6,2085,79,1879,1,2488,62483,14566
5,1,5,16,1,"significant","Contrast Avoidance and Residual Symptoms in Patients with GAD after CBT","The contrast avoidance model assumes that rather than the avoidance of negative affect, the avoidance of strong emotional contrasts is a central component of generalized anxiety disorder (GAD). Several experimental studies have demonstrated evidence to support this theoretical framework, but no study to date has investigated whether higher pre-treatment levels of contrast avoidance predict higher post-treatment residual symptoms following cognitive behavior therapy (CBT), when controlling for baseline symptom severity. In the present study, 128 patients with GAD underwent a 15-week CBT intervention focusing on worry exposure. Both GAD symptom severity and emotional contrast avoidance severity were assessed at baseline and at follow-up. Individuals who reported higher contrast avoidance at baseline were significantly more likely to report higher residual symptoms at follow-up, even when controlling for baseline symptom severity. The findings of this study provide evidence for an independent role of contrast avoidance in treatment efficacy in GAD.","text/16a.html_decision1",89,8413,4,5,4531,79,10115,1,23413,163630,20424
5,2,12,4,1,"significant","Therapists’ Empathy and Symptom Severity Bias in the First Therapy Session","A recent study on panic disorder found that patients rated their own symptoms as significantly lower when the study therapist showed low empathy, as compared to high empathy, in the first therapy session. The present observational study investigated whether study therapists’ empathy also predicts symptom severity in individuals diagnosed with major depression (MD). A total of 153 individuals diagnosed with MD completed the Beck Depression Inventory during the first therapy session. Empathy in the 56 responsible study therapists was measured using the Toronto Empathy Questionnaire (TEQ). The therapists’ TEQ scores significantly predicted patients’ BDI scores during the first therapy session. Patients with low-empathy therapists reported significantly fewer symptoms than did patients with high-empathy therapists. The findings confirm that baseline measures of symptom severity in MD might be biased by lack of empathy of the study therapist.","text/4a.html_decision1",80,2497,4,5,3381,80,2281,1,1516,73022,10741
5,3,19,8,0,"non-significant","Panic Disorder, Cognitive Bias, and Tinnitus","Individuals with panic disorder have an elevated risk of developing permanent tinnitus compared to healthy adults. Evidence from a large cohort study indicated that cognitive biases might play a role in the emergence of tinnitus. Since cognitive biases are common in individuals with panic disorder, we examined whether cognitive biases in panic disorder predict the emergence of tinnitus. The present prospective cohort study included 123 individuals with panic disorder. At baseline, participants completed measures of cognitive bias and were assessed by a clinician regarding anxiety symptoms and tinnitus. The assessment of anxiety symptoms and tinnitus was repeated at 3-year follow-up. Hazard ratios were estimated and logistic regression analyses were computed. At 3-year follow-up, 12% of participants reported a newly emerged tinnitus. Cognitive biases did not significantly predict the emergence of tinnitus. This study suggests that addressing cognitive biases in psychotherapy will likely not yield beneficial preventive effects for tinnitus emergence in patients with panic disorder.","text/8b.html_decision1",61,3448,3,4,3615,59,4199,1,1180,81287,42208
5,4,26,14,0,"non-significant","Heart Rate Variability and Therapy Dropout in Arachnophobia","Exposure therapy is an efficacious treatment in arachnophobia. However, several studies have documented high dropout rates. A recent study found that low high-frequency heart rate variability (HF-HRV), a reliable physiological indicator of parasympathetic activation, predicted dropout from exposure-focused therapy in patients with agoraphobia. Therefore, we investigated whether low pre-treatment HF-HRV predicts therapy dropout in individuals with arachnophobia. A total of 146 patients with arachnophobia underwent a standardized and manualized 12-week treatment focusing on exposure in vivo. Logistic regression models were fitted. Forty-two patients dropped out during treatment. HF-HRV was not significantly associated with dropout from exposure-focused treatment. The findings suggest that contrary to individuals with agoraphobia, spider-phobic individuals with low HF-HRV may not benefit  from treatment options aimed at increasing HF-HRV to avoid high dropout rates.","text/14b.html_decision1",30,2698,3,4,2497,29,4365,1,2631,96053,17591
5,5,33,12,1,"significant","Efficacy of Behavioral Activation Depending on Age in Generalized Anxiety Disorder","Generalized anxiety disorder (GAD) is one of the most prevalent mental illnesses worldwide. Behavioral activation (BA), as a third-wave behavioral therapy, is consistently found to be an efficacious treatment option for major depressive disorder (MDD). In addition to its role in treating MDD, BA may be beneficial in terms of alleviating anxiety in GAD. However, little is known about whether BA reduces anxiety across the lifespan, as BA shows a high age-sensitive efficacy in patients with MDD, with younger patients benefiting more from BA compared to older patients. Therefore, the present study analyzed whether age is associated with the efficacy of BA regarding anxiety reduction. The sample comprised 163 individuals with GAD, who participated at two measurement time points (baseline and 6-month follow-up). The mean age was 39.3 years (SD = 9.7) and age was normally distributed. GAD symptom severity was examined using the Generalized Anxiety Disorder Scale-7 (GAD-7). GAD-7 scores were significantly reduced at follow-up. Furthermore, the effect of BA on symptom reduction was significantly associated with age, with younger patients benefiting more from BA than older patients. Our findings suggest that BA is also relevant for GAD. Moreover, comparable to depression, younger people show stronger effects of BA in GAD.","text/12a.html_decision1",79,2280,4,5,3315,79,3514,0,1713,75147,NA
5,6,39,3,0,"non-significant","Intolerance of Uncertainty in PTSD","Several studies have found that prolonged exposure therapy effectively reduces post-traumatic stress disorder (PTSD) symptoms. Since intolerance of uncertainty (IU), as a cognitive mechanism, has been consistently found to be relevant for both the emergence and maintenance of PTSD, we hypothesized that reductions in IU would predict subsequent reductions in PTSD symptoms. Therefore, we conducted a prospective survey study that accompanied prolonged exposure therapy in 165 PTSD patients. Participants completed measures of PTSD symptoms and IU at the first therapy session (T0) and six (T1), 12 (T2), and 18 weeks later (T3). Reductions in IU at T1 and T2 did not significantly predict reductions in PTSD symptoms at subsequent measurement points. The findings suggest that cognitive changes in IU might not be related to subsequent symptom reductions in PTSD.","text/3b.html_decision1",90,2981,3,4,3231,80,4364,0,1898,47121,NA
5,7,45,13,1,"significant","Deficits in Defensive Reactivity and QoL in Antisocial Personality Disorder","There is growing evidence of deficits in defensive reactivity (indexed by the startle blink reflex) in individuals diagnosed with antisocial personality disorder (ASPD). However, to date, no study has examined the role of defensive reactivity in the quality of life (QoL) of individuals with ASPD. In the current study, we therefore explored whether the startle blink reflex is negatively associated with QoL in 143 individuals diagnosed with ASPD. Defensive reactivity was measured using a fear-potentiated startle reflex test. To assess QoL, participants completed the Short Form (36) Health Survey (SF-36). Startle blink reflex potentiation deficits during aversive picture viewing were common in the sample (62.3%). Blink reflex potentiation was negatively and significantly associated with QoL. In sum, these findings provide clear evidence that deficits in defensive reactivity are linked to poor QoL in ASPD.","text/13a.html_decision1",10,4931,4,5,3015,29,3515,1,1164,38264,45142
5,8,52,15,0,"non-significant","Therapist and Patient Age Effects on Dropout and Residual Symptoms in Borderline Personality Disorder","Borderline personality disorder (BPD) is associated with high levels of psychological strain. Residual symptoms after treatment and dropout rates are especially high in young adults. Evidence from other personality disorders suggests that in this age group, the therapist’s experience is negatively associated with treatment outcome. Thus, in the present study, we examined whether young adults (18-30 years) with BPD treated by more experienced therapists were more likely (1) to report elevated symptoms at post-treatment and (2) to drop out of therapy. In total, 145 individuals diagnosed with BPD underwent a standardized and manualized 18-week cognitive behavior therapy intervention administered by 53 therapists (therapist experience: M=21.4; SD=7.4). Symptom severity was assessed using the Borderline Symptom List 23 (BSL-23) at baseline and after treatment. Linear and logistic multilevel models were fitted to account for the nested structure of the data. Twenty-one individuals dropped out during therapy. Young adults with BPD treated by more experienced therapists were not significantly more likely to report elevated symptoms at post-treatment or to drop out. The results indicate that young individuals with BPD do not benefit more from therapy with less experienced psychotherapists, either in terms of symptom reduction or treatment dropout.","text/15b.html_decision1",30,3533,4,5,4982,39,2216,1,4447,69620,23459
5,9,59,5,1,"significant","Gender Differences in Long-Term QoL after CBT for OCD","Cognitive behavior therapy (CBT) is considered the first-line psychotherapeutic treatment for obsessive-compulsive disorder (OCD). In psychotherapeutic treatments of other disorders, it has been shown that women benefit more from CBT than do men in terms of long-term quality of life (QoL). This observational study examined whether women with OCD show a greater benefit from CBT five years after treatment completion. Participants were 84 men and 87 women with a previous diagnosis of OCD who had completed CBT five years earlier. QoL was assessed using the McGill Quality of Life Questionnaire (MQOL). Symptom severity at the end of therapy was assessed using the Yale–Brown Obsessive Compulsive Scale (Y-BOCS). Men reported significantly lower QoL compared to women, and this difference remained significant when QoL scores were adjusted for symptom severity at the end of therapy. Physical QoL showed the most pronounced gender difference. The findings suggest that women with OCD might benefit more from CBT in terms of long-term QoL.","text/5a.html_decision1",9,3097,5,6,3617,9,2781,1,1680,63262,8408
5,10,66,11,1,"significant","Socioeconomic Adaptation Theory of Rehabilitation in Schizophrenia","According to the Socioeconomic Adaptation Theory of Rehabilitation (SAToR), individuals with higher socioeconomic status (SES) tend to benefit more from psychiatric rehabilitation than individuals with lower SES. In line with the SAToR, we hypothesized that higher SES is associated with a greater reduction in symptom severity in patients with schizophrenia. We conducted an observational study over the course of a 12-month rehabilitation program, encompassing 146 participants with schizophrenia who were newly admitted to a psychiatric rehabilitation clinic. Symptom severity was measured using the Positive and Negative Syndrome Scale (PANSS). A longitudinal multilevel model was computed to predict rates of change in symptom severity. In line with our hypothesis, symptom change was significantly predicted by SES. This finding suggests that consistent with the SAToR, individuals with higher socioeconomic status (SES) tend to benefit more from rehabilitation of schizophrenia than individuals with lower SES.","text/11a.html_decision1",0,3181,6,7,2899,59,2298,1,2696,43469,13042
5,11,73,6,0,"non-significant","Stressful Life Events and Symptom Deterioration in Adult ADHD","This longitudinal study investigated whether stressful life events in young adulthood predict symptom deterioration in attention-deficit/hyperactivity disorder (ADHD). A total of 164 university students diagnosed with ADHD during childhood participated in our prospective study. Participants completed measures on ADHD symptom severity and stressful life events at baseline (t0: age 18-20), 5-year follow-up (t1: age 23-25) and 9-year follow-up (t2: age 27-29). Symptom deterioration was defined as the difference in symptom severity between two measurement time points. Stressful life events at t0 and t1 did not significantly predict symptom deterioration at t1 and t2, respectively. The findings provide longitudinal evidence that stressful life events might not be linked to subsequent symptom deterioration in ADHD during young adulthood.","text/6b.html_decision1",39,1998,3,4,2648,38,3164,1,1180,78071,12108
5,12,80,7,1,"significant","Emotion Recognition Bias and Satisfaction with Intimate Relationships in Bipolar II Disorder","Emotion recognition bias is consistently found in affective disorders. This observational study explored whether emotion recognition bias for ambiguous facial expressions is linked to satisfaction with intimate relationships in individuals diagnosed with bipolar II disorder. A total of 144 patients with bipolar II disorder who reported being in an intimate relationship (married, cohabiting, engaged, or dating) completed the Emotional Bias Task (EBT) and the Relationship Assessment Scale (RAS). EBT scores were significantly and negatively correlated with RAS scores. The results indicate that emotion recognition for ambiguous facial expressions is negatively correlated with self-reported relationship quality in patients with bipolar II disorder.","text/7a.html_decision1",19,2731,5,6,3482,39,7448,1,1263,33676,25393
5,13,87,1,0,"non-significant","Efficacy of MBCT for Emotion Regulation in Bulimia Nervosa","Eating disorders are characterized by emotional, behavioral, and physiological dysregulation in relation to food intake and self-identity. Several studies have documented positive effects of mindfulness-based interventions in the treatment of eating disorders, and systematic reviews have indicated emotion regulation as a specific mechanism of mindfulness-based interventions. Hence, we hypothesized that low emotion regulation skills in individuals with bulimia nervosa (BN) might be improved by mindfulness-based cognitive therapy (MBCT). A total of 129 women diagnosed with BN received group MBCT. The Courtauld Emotional Control Scale (CECS) was applied pre- and post-intervention and an ANOVA was conducted. We did not find a significant interaction effect: The data revealed no improvement in emotion regulation over time in patients reporting lower emotion regulation skills at baseline. Emotion regulation improvement might not be a mechanism of mindfulness-based interventions in eating disorders.","text/1b.html_decision1",29,4182,4,5,3415,31,2264,1,2130,62268,22843
5,14,94,2,1,"significant","Antenatal Depressive Symptoms Predict Postnatal Depersonalization/Derealization Symptoms","Around one fifth of all pregnant women in the US report antenatal depressive symptoms (ADS). A recent study on the mental health of young mothers in Bolivia found that ADS predict not only postnatal depression but also postnatal depersonalization/derealization symptoms (PDDS). The present study investigated whether ADS also predict PDDS in mothers in the US. Therefore, we conducted a prospective survey study with 124 pregnant women in San Diego County, CA, and in Minneapolis, MN. Participants were recruited in week 20 of pregnancy. ADS were measured using the Beck Depression Inventory (BDI). Six months after hospital discharge, participants completed a self-report questionnaire for PDDS using the Dissociative Experiences Scale (DES). 20.1% of the women reported ADS above the cut-off (BDI score ≥ 18) and 7.4% reported having dissociative experiences in the six months after birth (DES score ≥ 20). ADS scores significantly predicted PDDS, with higher ADS scores indicating higher PDDS scores. Consistent with findings in Bolivian mothers, the present findings in American mothers suggest that ADS might be a relevant etiological factor for PDDS.","text/2a.html_decision1",79,2998,4,5,2832,79,1848,1,1713,49412,14675
5,15,101,9,0,"non-significant","Behavioral Activation and Working Memory Capacity in MDD","Several studies have documented positive effects of behavioral activation therapy (BAT) on stress reduction in persons with major depressive disorder (MDD). Two recent studies reported that the efficacy of BAT in terms of stress reduction was mediated by fluid intelligence. However, a neuroscientific study suggested that this mediation might be attributable to a shared functional area between stress regulation and working memory in the hypothalamus. Therefore, in this paper, we explored whether working memory capacity mediates the efficacy of BAT regarding stress reduction in 145 individuals diagnosed with MDD. At baseline, we assessed working memory capacity using an n-back task (2/3-back) and fluid intelligence using the Culture Fair Intelligence Test (CFIT). Stress was assessed using the Perceived Stress Scale (PSS-10) at baseline and after 14 weekly sessions of BAT. A SEM model was estimated to evaluate mediation. In our SEM model, significant stress reduction after BAT was not significantly mediated either by working memory capacity or by fluid intelligence. The findings indicate that the efficacy of BAT regarding stress reduction is not mediated by working memory capacity or by other aspects of fluid intelligence, potentially ruling out a shared functional area in the hypothalamus.","text/9b.html_decision1",48,3448,2,3,2415,44,2047,1,1497,70170,9207
5,16,108,10,0,"non-significant","Polygenic Risk Scores and Heart Rate during Exposure in Patients with Agoraphobia","Polygenic risk scores (PRS) describe individual risks for specific diseases based on genetic information from multiple loci. Previous studies suggest that PRS may predict differences in the physiological activation of individuals with agoraphobia. In this study, we examined whether the possibility to predict affected individuals’ heart rate by their PRS depends on the type of exposure trial. We postulated that PRS would predict heart rate within in-vivo as well as in-virtuo trials. Data were analyzed from 132 individuals diagnosed with agoraphobia who underwent either in-vivo (N = 63) or in-virtuo (N = 69) exposure. Contrary to our hypothesis, heart rate was not significantly predicted by PRS in either the in-vivo or the in-virtuo setting. The results of this study suggest that while PRS provide useful diagnostic information for an individual’s risk of agoraphobia, they may not provide useful information for predicting physiological reactions in exposure settings.","text/10b.html_decision1",46,1914,2,3,2016,46,1548,1,1347,40739,23076
6,1,5,6,0,"non-significant","Stressful Life Events and Symptom Deterioration in Adult ADHD","This longitudinal study investigated whether stressful life events in young adulthood predict symptom deterioration in attention-deficit/hyperactivity disorder (ADHD). A total of 164 university students diagnosed with ADHD during childhood participated in our prospective study. Participants completed measures on ADHD symptom severity and stressful life events at baseline (t0: age 18-20), 5-year follow-up (t1: age 23-25) and 9-year follow-up (t2: age 27-29). Symptom deterioration was defined as the difference in symptom severity between two measurement time points. Stressful life events at t0 and t1 did not significantly predict symptom deterioration at t1 and t2, respectively. The findings provide longitudinal evidence that stressful life events might not be linked to subsequent symptom deterioration in ADHD during young adulthood.","text/6b.html_decision1",20,7665,5,6,8020,10,8275,0,3437,31346,NA
6,2,11,16,0,"non-significant","Contrast Avoidance and Residual Symptoms in Patients with GAD after CBT","The contrast avoidance model assumes that rather than the avoidance of negative affect, the avoidance of strong emotional contrasts is a central component of generalized anxiety disorder (GAD). Several experimental studies have demonstrated evidence to support this theoretical framework, but no study to date has investigated whether higher pre-treatment levels of contrast avoidance predict higher post-treatment residual symptoms following cognitive behavior therapy (CBT), when controlling for baseline symptom severity. In the present study, 128 patients with GAD underwent a 15-week CBT intervention focusing on worry exposure. Both GAD symptom severity and emotional contrast avoidance severity were assessed at baseline and at follow-up. There was no significant association between contrast avoidance at baseline and residual symptoms at follow-up, even when controlling for baseline symptom severity. The findings of this study provide no evidence that contrast avoidance may influence treatment efficacy in GAD.","text/16b.html_decision1",30,2888,5,6,2807,30,2282,0,4957,69581,NA
