"id","trial","trial_index","abstract","treatment","treatment_string","title","abstract_text","stimulus","decision1_read_resp","decision1_read_rt","decision1_cite_resp","decision1_cite_rt","for_read_resp","for_read_resp_factor","for_read_rt","for_cite_resp","for_cite_resp_factor","for_cite_rt","decision2_read_resp","decision2_read_rt","decision2_cite_resp","decision2_cite_rt","rethink_resp","rethink_rt","read1_rt","read2_rt"
1,1,5,1,1,"hypothesis-consistent","Delayed Diagnosis of Antisocial PD in Rural Areas","Due to the lack of mental health professionals in many rural areas in the US, residence in a rural area is associated with a delayed diagnosis of mental health conditions. Surprisingly, recent studies did not find this association for individuals with personality disorders. However, given that individuals with antisocial personality disorder (APD) are especially unlikely to seek help, we predicted that those living in rural areas would receive a delayed diagnosis. We conducted a survey study with 183 individuals suffering from APD (N = 64 rural, N = 58 suburban, N = 61 urban areas). Residents of rural areas were older at the time of diagnosis (M = 31.2 years, SD = 5.3) compared to residents of suburban areas (M = 28.1, SD = 5.1) and urban areas (M = 28.5, SD = 4.9), indicating that diagnosis for individuals with APD might be delayed in rural areas in the US.","text/1a.html_decision1_read",60,16327,61,3730,4,5,8825,3,4,5237,60,12801,60,3170,0,14495,40562,NA
1,2,14,7,1,"hypothesis-consistent","Systemic Psychotherapy in OCD","The involvement of caregivers (parents and partners) in systemic psychotherapy (SPT) has gained attention in the mental health literature. Most of the evidence on beneficial treatment effects of systemic involvement comes from studies on affective disorders, while evidence regarding obsessive-compulsive disorder (OCD) is lacking. In this randomized controlled study, we hypothesized that SPT is as efficacious as psychodynamic therapy in terms of improving symptom burden in OCD.  A total of 147 participants were randomized either to SPT (n = 49), psychodynamic therapy (n = 49), or a wait list condition (n = 49). Symptom burden of OCD was assessed twice at 6-month intervals using the Yale-Brown Obsessive-Compulsive Scale (Y-BOCS). Participants in both the psychodynamic and the SPT condition showed decreases in their symptom burden scores over time. As predicted, using an equivalency test, at 6-month follow-up, there were no differences between the two groups regarding symptom burden. Symptom burden scores for the wait list condition remained unchanged. The findings suggest that SPT is as efficacious as psychodynamic therapy in terms of improving symptom burden in OCD.","text/7a.html_decision1_read",40,3001,30,2403,2,3,6271,4,5,6234,29,2931,30,2206,0,1790,128327,NA
1,3,23,14,0,"hypothesis-inconsistent","Therapist and Patient Agreeableness in Histrionic PD","Several studies have documented that therapeutic relationships play a key role in psychotherapy outcomes in patients with histrionic personality disorder (HPD). However, many studies in this field have investigated the working alliance between therapist and patient but neglected to examine the influence of personality variables – especially therapist variables – on this alliance. In the present study, we examined whether individuals with HPD experience greater symptom improvements in the case of higher levels of agreeableness in both themselves and in their therapist. In 152 patients with HPD, symptom severity was assessed at baseline and after nine months of treatment using the Brief Histrionic Personality Scale. Therapists (N = 42) and patients completed the Big Five Inventory only once, prior to the initiation of treatment. Using multi-level-modelling, we examined whether measurement time point (level 1) would be nested within patients (level 2), who would in turn be nested within therapists (level 3). Contrary to expectation, individuals with HPD demonstrated greater symptom improvement when both patient and therapist showed lower scores on agreeableness. The results suggest that agreeableness in both the patient and the therapist negatively influences psychotherapy outcomes in HPD.","text/14b.html_decision1_read",11,2369,20,4082,2,3,4164,3,4,3750,30,1890,29,1950,1,1118,16899,5070
1,4,33,15,0,"hypothesis-inconsistent","Metacognitive Training and Acceptance and Commitment Therapy in GAD","The purpose of this study was to examine symptom change in a randomized controlled trial of metacognitive training (MT) and acceptance and commitment therapy (ACT) for generalized anxiety disorder (GAD). Based on recent meta-analytic findings on GAD, we expected to observe greater symptom reductions in the MT group compared to the ACT group. N = 164 individuals with GAD were randomly assigned to MT (n = 80) or ACT (n = 84). The Generalized Anxiety Disorder Scale-7 (GAD-7) was used to measure anxiety symptoms at baseline and at 6-, 12-, and 18-month follow-up. Eighty-nine (54%) individuals experienced improvement gains and 39 (24%) experienced a deterioration of anxiety. Contrary to our hypothesis, patients in the ACT group experienced stronger improvements than those in the MT group. Rates of symptom change were highest between baseline and first follow-up. Neither individuals in the MT group nor those in the ACT group showed a pronounced further symptom reduction between 12- and 18-month follow-up. The results highlight the beneficial effect of both MT and ACT in the treatment of GAD, but also suggest that ACT might lead to more pronounced symptom improvement.","text/15b.html_decision1_read",79,4983,70,2387,5,6,3578,5,6,2841,81,2192,69,2483,0,1119,96773,NA
1,5,42,2,0,"hypothesis-inconsistent","Laxative abuse in Bulimia nervosa and Prolonged Inpatient Stay","Laxative abuse (LA) in patients with bulimia nervosa (BN) is associated with greater suicidality and self-harm as compared to self-induced vomiting (SIV). Due to these unfavorable associations with LA, we assumed that patients who mainly use LA for compensatory purging would also remain in inpatient treatment for longer than BN patients who mainly use SIV. We interviewed 154 patients with BN about their compensatory behaviors following admission to an inpatient clinic for eating disorders. Of these, 102 individuals reported predominantly using SIV while 52 reported predominantly using LA. Compared to patients mainly using SIV (M = 10.5, SD = 4.1), patients primarily using LA did not stay in inpatient care for longer (M = 9.8, SD = 4.6). While there are several unfavorable associations with LA, we conclude that LA in patients with BN is not associated with prolonged inpatient stays.","text/2b.html_decision1_read",39,3306,20,2082,5,6,5072,5,6,2286,32,2787,16,1852,0,913,32309,NA
1,6,51,13,1,"hypothesis-consistent","Systemic Therapy & Metacognitive Therapy in Bipolar I disorder","Recent studies suggest that systemic therapy (ST) provides beneficial effects in terms of reducing symptoms and recurrence rates in mood disorders, which exceed the effects of other therapies such as metacognitive therapy (MT). However, to date, no study has compared the effectiveness of ST and MT in patients with bipolar I disorder (BID). To fill this gap, in a randomized controlled trial, we compared the effectiveness of MT and ST regarding symptom reduction in 163 patients with BID. We hypothesized that symptom reduction would be more pronounced in the ST group than in the MT group. Participants completed symptom severity measures at baseline and at 6-month follow-up. While symptoms decreased in both conditions, the ST group showed a stronger symptom reduction than the MT group. The results provide evidence that ST represents an efficacious treatment option for BID, which is superior to MT.","text/13a.html_decision1_read",70,3275,73,2049,4,5,2485,4,5,4066,62,3715,67,1597,0,1249,77563,NA
1,7,60,4,0,"hypothesis-inconsistent","Gender & Mindful-Based Cognitive Therapy","Mindfulness-based cognitive therapy (MBCT) has proven to be efficacious for stress reduction and has become increasingly popular over recent years, especially in female patients. However, little research has explored whether its effectiveness is moderated by gender. The current study therefore investigated whether female participants benefit more from MBCT compared to male participants. Seventy-six females and 69 males completed an MBCT program consisting of eight sessions delivered weekly. Stress symptoms were assessed using the Perceived Stress Scale (PSS) at three measurement time points: 1 week before the intervention, 1 week after the intervention and 7 weeks after the intervention. Pre-intervention stress levels were comparable between the two groups. Males reported lower levels of perceived stress after the intervention than did females. No other main effects or interactions emerged across any of the outcome variables. Contrary to our hypothesis, these findings indicate that males may benefit more from MBCT than females.","text/4b.html_decision1_read",60,2763,60,1682,1,2,3708,1,2,2337,50,3801,53,1364,0,1119,126320,NA
1,8,69,11,1,"hypothesis-consistent","Changes in Life Satisfaction after Interpersonal Therapy for Alcohol Abuse Disorder: Teletherapy vs. face-to-face therapy","Interpersonal therapy has become one of the most efficacious treatment options with regard to life satisfaction (LS) for individuals suffering from alcohol abuse disorder (AAD) in the post-acute withdrawal stage. The COVID-19 pandemic has led to an increased need for digital psychotherapy solutions, also in AAD. To date, however, no study has compared the effect of interpersonal therapy on LS in a teletherapy setting versus a face-to-face setting. In a randomized controlled trial, 153 individuals with a previous diagnosis of AAD who had been abstinent for at least six months were randomized to a teletherapy condition or a face-to-face condition. We hypothesized that participants in the two conditions would experience equivalent increases in LS over the course of six months. LS was assessed with the Satisfaction with Life Scale (SWLS) at baseline and six months later. On average, LS increased between the two measurement time points. Furthermore, using equivalency testing, after six months, patients did not show differences in LS scores between the face-to-face and the teletherapy condition, confirming our hypothesis. The results suggest that patients with AAD benefit equally from traditional interpersonal therapy in a face-to-face setting and in an interpersonal teletherapy setting.","text/11a.html_decision1_read",46,4606,43,1728,0,1,2483,1,2,4051,41,2611,35,3603,1,1393,96493,1761
1,9,79,10,0,"hypothesis-inconsistent","Schema therapy & Openness in Borderline PD","Schema therapy (ST) is known to be an efficacious treatment with medium to large effect sizes in young adults diagnosed with borderline personality disorder (BPD). Nevertheless, patients’ treatment outcomes vary strongly in ST. It remains unclear which factors drive this variability in treatment efficacy. We hypothesized that openness to experience might positively moderate the effectiveness of ST, with individuals with higher levels of openness experiencing more pronounced reductions in symptom burden. 125 participants aged between 18 and 29 years participated in our quasi-experimental pretest/posttest study. Participants completed self-report measures of BPD symptoms and of attitudes about openness to experience before (t0) and after (t1) attending either a 12-session ST program (n = 62) or a wait list condition (n = 63). Participants in the ST condition showed a pronounced symptom improvement while there was no improvement in the wait list condition. Contrary to our hypothesis, improvement over time was negatively moderated by openness to experience in the ST group: Individuals who reported lower levels of openness to experience showed more pronounced reductions in BPD symptoms. The results indicate that high openness to experience might represent a risk factor for treatment non-response in young adults undergoing ST for the treatment of BPD.","text/10b.html_decision1_read",62,2673,68,1826,2,3,7344,3,4,1793,59,7121,61,2594,0,880,44152,NA
1,10,88,5,1,"hypothesis-consistent","Pre-Treatment Symptom Severity in Psychodynamic Therapy for PTSD","To date, there is a lack of knowledge about whether psychotherapeutic interventions work equally well in PTSD patients regardless of initial symptom severity. In a randomized controlled trial, we therefore investigated whether treatments would reduce PTSD symptoms differently depending on patients' baseline symptom burden. We postulated that high initial symptom burden would be associated with smaller symptom improvement. A total of 153 PTSD patients were assigned either to six months of psychodynamic therapy (n = 73) or a waiting list control group (n = 80). Symptom severity was measured 1 week before the first therapy session and 1, 3, and 6 months later. Longitudinal multilevel models were fitted. Symptom severity decreased over time only in the treatment group. However, high initial symptom severity predicted lower changes in symptom severity. Confirming our hypothesis, our results indicate that patients with high pre-treatment symptom severity benefit less from therapy, whereas those with low initial severity benefit more.","text/5a.html_decision1_read",55,4003,59,1602,2,3,2007,2,3,3735,39,1742,44,1556,1,1277,213218,1449
1,11,98,6,0,"hypothesis-inconsistent","Telepsychotherapy in Social Anxiety Disorder","Social anxiety disorder (SAD) affects approximately 2% of adults worldwide, most commonly during adolescence. Despite skepticism from many practitioners, telepsychotherapy (TPT) represents an efficacious alternative to regular face-to-face psychotherapy (FTF-PT) for various mental disorders. Unfortunately, many studies examining TPT excluded patients with SAD due to their often-found deficits in adapting to new forms of social situations. However, since telepsychotherapy represents a less intense social exposure for individuals with SAD, we assumed that the favorable effects of exposure would be less intense in TPT compared to FTF-PT for patients with SAD. In an experimental design, we gathered 12-month follow-up data for 164 individuals diagnosed with SAD. Participants were randomized either to regular cognitive behavioral psychotherapy (n = 83) or to telepsychotherapy (n = 81). SAD symptom severity was evaluated using the Liebowitz Social Anxiety Scale. Symptom severity declined in both conditions over time, but contrary to our hypothesis, the effect was stronger in the TPT condition. These results suggest that individuals with SAD benefit more from TPT compared to FTF-PT. A possible mechanism for this might be that in TPT, social cues are experienced as less threatening compared to FTF-PT.","text/6b.html_decision1_read",59,2770,61,1521,5,6,2500,4,5,2120,72,1631,66,2017,1,1535,60051,6320
1,12,108,8,0,"hypothesis-inconsistent","Extraversion and Group-Based Approaches in GAD","Individual psychodynamic therapy is consistently found to be more efficacious than group-based psychodynamic therapy in patients with generalized anxiety disorder (GAD). However, in other anxiety disorders, group-based approaches are known to be more effective. Studies on personality risk factors in GAD found that the disorder is strongly associated with low extraversion. Thus, the present study investigated whether the efficacy of group-based psychodynamic therapy is moderated by extraversion. We hypothesized that individuals with low extraversion might benefit less from the advantageous effects of group-based psychodynamic therapy than those with higher extraversion. A total of 134 individuals diagnosed with GAD according to the DSM-5 criteria took part in our randomized controlled trial. Participants were allocated to group-based psychodynamic therapy, individual psychodynamic therapy, or a wait list control group. The Generalized Anxiety Disorder Scale-7 (GAD-7) and the Big Five Inventory (BFI-10) were completed at baseline and 9-month follow-up. GAD-7 scores decreased from baseline to follow-up in the group-based and in the individual condition, while the wait-list group showed no change. Contrary to our hypothesis, symptom reduction was moderated by extraversion only in the individual psychodynamic therapy setting: Individuals reporting lower extraversion tended to show smaller increases compared to more extroverted individuals. The findings suggest that patients with low extraversion benefit less from individual psychodynamic therapy.","text/8b.html_decision1_read",82,2724,84,2821,6,7,3620,6,7,3098,74,3151,79,2718,1,814,121518,55072
1,13,118,16,1,"hypothesis-consistent","Subclinical Social anxiety and Group Therapy Outcomes","Randomized controlled trials have documented the efficacy of transdiagnostic cognitive behavioral group therapy (TCB-GT). However, little is known about the role of subclinical social anxiety in TCB-GT, which is associated with worse outcomes in other group therapy settings. We hypothesized that individuals with higher social anxiety would experience less pronounced improvements during group therapy. In this multi-center study, 181 patients with panic disorder, obsessive-compulsive disorder, bipolar disorder, generalized anxiety disorder, or posttraumatic stress disorder took part in 20 weekly sessions of TCB-GT. The exclusion criterion was fulfillment of all diagnostic criteria for social anxiety disorder. All participants completed the Liebowitz Social Anxiety Scale (LSAS) at pre-treatment baseline and diagnosis-specific symptom measures at baseline, 10-week follow-up and 20-week follow-up. Strong symptom improvements were observed at both follow-ups, with the exception of the bipolar disorder subgroup at the first follow-up. Consistent with our expectation, individuals with higher social anxiety experienced less pronounced improvements during group therapy. The results demonstrate that individuals with high subclinical social anxiety are at particular risk of treatment non-response in TCB-GT.","text/16a.html_decision1_read",64,2961,62,3543,5,6,2079,5,6,2866,61,2688,63,1411,1,882,21755,2150
1,14,128,12,1,"hypothesis-consistent","Primary Agoraphobia and Agoraphobia with Fearful Spells","A third of all patients with agoraphobia have primary agoraphobia (PA) without a history of panic disorder (PD), panic attacks, or fearful spells. Individuals with agoraphobia with fearful spells (AwFS) share several functional and structural brain characteristics with individuals with PD, which are not found in individuals with PA. These similarities include reduced cortical thickness in prefrontal brain regions associated with extinction learning. In a randomized controlled trial, we investigated whether individuals with PA show a greater symptom reduction after cognitive behavior therapy (CBT) compared to individuals with AwFS, who might have more difficulties in extinction learning during treatment. Eighty-three participants with AwFs and 94 with PA were randomly assigned to either a 12-week CBT condition (n=91) or a waiting list condition (n=86). Symptom severity was prospectively followed up after 12 weeks using the Panic and Agoraphobia Scale (PAS). Repeated measures ANOVA models were estimated. The interaction effect of treatment x diagnosis x time predicted symptom reduction. Post hoc analyses of this interaction effect revealed that in line with our hypothesis, individuals with PA who underwent CBT experienced the strongest symptom reductions over time. This study provides evidence that PA might be associated with increased responsiveness to CBT compared to AwFS.","text/12a.html_decision1_read",44,2067,46,1985,1,2,4764,0,1,2739,42,1950,43,1391,0,1829,31148,NA
1,15,137,3,0,"hypothesis-inconsistent","Trauma-Focused Cognitive Behavior Therapy in Borderline Personality Disorder","Borderline personality disorder (BPD) is a severe mental illness associated with poor quality of life (QoL). As trauma exposure may be involved in the development of BPD, trauma-focused cognitive behavioral therapy (TF-CBT) might be a beneficial treatment option for patients with the disorder. To examine whether TF-CBT leads to greater increases in QoL compared to standard care in patients with BPD, we conducted a randomized controlled trial comparing standard cognitive behavioral therapy (CBT) alone with TF-CBT. Eighty-nine adult outpatients diagnosed with borderline personality disorder according to the DSM-5 criteria received either CBT (n = 46) or TF-CBT (n = 43). Patients completed self-report measures before randomization and again two months later. Compared with CBT participants, those who underwent TF-CBT experienced smaller improvements in several domains of QoL, including general functioning, physical health, psychological distress, interpersonal problems, and overall QoL. Contrary to our hypothesis, our results suggest that TF-CBT is less beneficial than the standard-care CBT option in terms of improving QoL in individuals with borderline personality disorder.","text/3b.html_decision1_read",44,3521,46,1534,2,3,2714,2,3,2115,61,2293,58,1746,1,1080,46857,1557
1,16,147,9,1,"hypothesis-consistent","Hindsight Bias in MDD and GAD","Hindsight bias in major depressive disorder (MDD) has attracted considerable attention in the mental health literature. MDD and generalized anxiety disorder (GAD) share common associations with several cognitive biases such as the fundamental attribution error and the end-of-history illusion. To our knowledge, no empirical research has compared hindsight bias in MDD and GAD. Based on the current literature, we hypothesized that hindsight bias would be as pronounced in MDD as in GAD. To investigate this, we conducted a quasi-experimental study with 169 participants (84 MDD/ 85 GAD). Hindsight bias was operationalized using both the memory and the hypothetical design. As hypothesized, hindsight bias in both the memory and the hypothetical design was as pronounced in MDD patients as in GAD patients. The results indicate that patients with MDD and GAD show equal levels of hindsight bias.","text/9a.html_decision1_read",74,4017,83,1583,5,6,2295,5,6,1648,80,2276,80,1904,1,1087,27461,18950
2,1,5,5,0,"hypothesis-inconsistent","Pre-Treatment Symptom Severity in Psychodynamic Therapy for PTSD","To date, there is a lack of knowledge whether psychotherapeutic interventions work equally well in PTSD patients regardless of initial symptom severity. In a randomized controlled trial, we therefore investigated whether treatments would reduce PTSD symptoms differently depending on patients' baseline symptom burden. We postulated that high initial symptom burden would be associated with smaller symptom improvement. A total of 153 PTSD patients were assigned either to six months of psychodynamic therapy (n = 73) or a waiting list control group (n = 80). Symptom severity was measured 1 week before the first therapy session and 1, 3, and 6 months later. Longitudinal multi-level models were fitted. Symptom severity decreased over time only in the treatment group. However, high initial symptom severity predicted greater changes in symptom severity. Contrary to our hypothesis, our results indicate that patients with high pre-treatment symptom severity benefit more from therapy, whereas those with low initial severity benefit less.","text/5b.html_decision1_read",30,12744,50,8631,4,5,11284,4,5,2433,31,4430,50,4232,0,10094,18722,NA
2,2,14,7,0,"hypothesis-inconsistent","Systemic Psychotherapy in OCD","The involvement of caregivers (parents and partners) in systemic psychotherapy (SPT) has gained attention in the mental health literature. Most of the evidence on beneficial treatment effects of systemic involvement comes from studies on affective disorders, while evidence regarding obsessive-compulsive disorder (OCD) is lacking. In this randomized controlled study, we hypothesized that SPT is as efficacious as psychodynamic therapy in terms of improving symptom burden in OCD A total of 147 participants were randomized either to SPT (n = 49), psychodynamic therapy (n = 49), or a wait list condition (n = 49). Symptom burden of OCD was assessed twice at 6-month intervals using the Yale-Brown Obsessive-Compulsive Scale (Y-BOCS). Participants in both the psychodynamic and the SPT condition showed decreases in their symptom burden scores over time. However, using an equivalency test, at 6-month follow-up, symptom burden was lower in the psychodynamic group than in the SPT group. Symptom burden scores for the wait list condition remained unchanged. The findings suggest that SPT is less efficacious than psychodynamic therapy in terms of improving symptom burden in OCD.","text/7b.html_decision1_read",10,3134,9,4197,4,5,2549,4,5,1380,5,14615,2,2916,0,4332,27954,NA
2,3,23,4,1,"hypothesis-consistent","Gender & Mindful-Based Cognitive Therapy","Mindfulness-based cognitive therapy (MBCT) has proven to be efficacious for stress reduction and has become increasingly popular over recent years, especially in female patients. However, little research has explored whether its effectiveness is moderated by gender. The current study therefore investigated whether female participants benefit more from MBCT compared to male participants. Seventy-six females and 69 males completed an MBCT program consisting of eight sessions delivered weekly. Stress symptoms were assessed using the Perceived Stress Scale (PSS) at three measurement time points: 1 week before the intervention, 1 week after the intervention and 7 weeks after the intervention. Pre-intervention stress levels were comparable between the two groups. Females reported lower levels of perceived stress after the intervention than did males. No other main effects or interactions emerged across any of the outcome variables. These findings confirm our hypothesis that females may benefit more from MBCT than males.","text/4a.html_decision1_read",50,3666,50,2797,3,4,2749,4,5,3433,61,1599,54,2481,0,1515,14818,NA
2,4,32,11,0,"hypothesis-inconsistent","Changes in Life Satisfaction after Interpersonal Therapy for Alcohol Abuse Disorder: Teletherapy vs. face-to-face therapy","Interpersonal therapy has become one of the most efficacious treatment options with regard to life satisfaction (LS) for individuals suffering from alcohol abuse disorder (AAD) in the post-acute withdrawal stage. The COVID-19 pandemic has led to an increased need for digital psychotherapy solutions, also in AAD. To date, however, no study has compared the effect of interpersonal therapy on LS in a teletherapy setting versus a face-to-face setting. In a randomized controlled trial, 153 individuals with a previous diagnosis of AAD who had been abstinent for at least six months were randomized to a teletherapy condition or a face-to-face condition. We hypothesized  that participants in the two conditions would experience equivalent increases in LS over the course of six months. LS was assessed with the Satisfaction with Life Scale (SWLS) at baseline and six months later. On average, LS increased between the two measurement time points. Furthermore, using equivalency testing, after six months, patients in the face-to-face condition showed larger increases in LS scores compared to patients in the teletherapy condition. The results suggest that patients with AAD benefit more from traditional interpersonal therapy in a face-to-face setting compared to an interpersonal teletherapy setting.","text/11b.html_decision1_read",50,9082,50,1415,0,1,3232,0,1,1616,70,1964,50,1449,1,1413,7158,20656
2,5,42,15,1,"hypothesis-consistent","Metacognitive Training and Acceptance and Commitment Therapy in GAD","The purpose of this study was to examine symptom change in a randomized controlled trial of metacognitive training (MT) and acceptance and commitment therapy (ACT) for generalized anxiety disorder (GAD). Based on recent meta-analytic findings on GAD, we expected to observe greater symptom reductions in the MT group compared to the ACT group. N = 164 individuals with GAD were randomly assigned to MT (n = 80) or ACT (n = 84). The Generalized Anxiety Disorder Scale-7 (GAD-7) was used to measure anxiety symptoms at baseline and at 6-, 12-, and 18-month follow-up. Eighty-nine (54%) individuals experienced improvement gains and 39 (24%) experienced a deterioration of anxiety. In line with our hypothesis, patients in the MT group experienced stronger improvements than those in the ACT group. Rates of symptom change were highest between baseline and first follow-up. Neither individuals in the MT group nor those in the ACT group showed a pronounced further symptom reduction between 12- and 18-month follow-up. The results highlight the beneficial effect of both MT and ACT in the treatment of GAD, but also suggest that MT might lead to more pronounced symptom improvement.","text/15a.html_decision1_read",70,2400,50,2131,4,5,2071,4,5,1644,80,6482,50,2115,0,1647,30164,NA
2,6,51,14,1,"hypothesis-consistent","Therapist and Patient Agreeableness in Histrionic PD","Several studies have documented that therapeutic relationships play a key role in psychotherapy outcomes in patients with histrionic personality disorder (HPD). However, many studies in this field have investigated the working alliance between therapist and patient but neglected to examine the influence of personality variables – especially therapist variables – on this alliance. In the present study, we examined whether individuals with HPD experience greater symptom improvements in the case of higher levels of agreeableness in both themselves and in their therapist. In 152 patients with HPD, symptom severity was assessed at baseline and after nine months of treatment using the Brief Histrionic Personality Scale. Therapists (N = 42) and patients completed the Big Five Inventory only once, prior to the initiation of treatment. Using multi-level-modelling, we examined whether measurement time point (level 1) would be nested within patients (level 2), who would in turn be nested within therapists (level 3). As expected, individuals with HPD demonstrated a greater symptom improvement when both patient and therapist showed higher scores on agreeableness. The results suggest that agreeableness in both the patient and the therapist positively influences psychotherapy outcomes in HPD.","text/14a.html_decision1_read",50,3282,60,1930,4,5,3066,4,5,1498,60,2333,44,1948,0,6498,19398,NA
2,7,60,3,1,"hypothesis-consistent","Trauma-Focused Cognitive Behavior Therapy in Borderline Personality Disorder","Borderline personality disorder (BPD) is a severe mental illness associated with poor quality of life (QoL). As trauma exposure may be involved in the development of BPD, trauma-focused cognitive behavioral therapy (TF-CBT) might be a beneficial treatment option for patients with the disorder. To examine whether TF-CBT leads to greater increases in QoL compared to standard care in patients with BPD, we conducted a randomized controlled trial comparing standard cognitive behavioral therapy (CBT) alone with TF-CBT. Eighty-nine adult outpatients diagnosed with borderline personality disorder according to the DSM-5 criteria received either CBT (n = 46) or TF-CBT (n = 43). Patients completed self-report measures before randomization and again two months later. Compared with CBT participants, those who underwent TF-CBT experienced greater improvements in several domains of QoL, including general functioning, physical health, psychological distress, interpersonal problems, and overall QoL. Our results suggest that, confirming our initial hypothesis, TF-CBT represents a promising treatment option in terms of improving QoL in individuals with borderline personality disorder exceeding standard care.","text/3a.html_decision1_read",41,1699,29,1450,4,5,4082,4,5,1180,39,2632,21,2499,0,1014,17133,NA
2,8,69,6,1,"hypothesis-consistent","Telepsychotherapy in Social Anxiety Disorder","Social anxiety disorder (SAD) affects approximately 2% of adults worldwide, most commonly during adolescence. Despite skepticism from many practitioners, telepsychotherapy (TPT) represents an efficacious alternative to regular face-to-face psychotherapy (FTF-PT) for various mental disorders. Unfortunately, many studies examining TPT excluded patients with SAD due to their often-found deficits in adapting to new forms of social situations. However, since telepsychotherapy represents a less intense social exposure for individuals with SAD, we assumed that the favorable effects of exposure would be less intense in TPT compared to FTF-PT for patients with SAD. In an experimental design, we gathered 12-month follow-up data for 164 individuals diagnosed with SAD. Participants were randomized either to regular cognitive behavioral psychotherapy (n = 83) or to telepsychotherapy (n = 81). SAD symptom severity was evaluated using the Liebowitz Social Anxiety Scale. Confirming our hypothesis, symptom severity declined in both conditions over time, but the effect was stronger in the FTF-PT condition. These results suggest that individuals with SAD benefit more from FTF-PT compared to TPT. A possible mechanism for this might be that FTF-PT itself represents a more intense social exposure compared to TPT.","text/6a.html_decision1_read",50,5014,61,1681,3,4,2168,4,5,1264,60,1798,60,2014,0,981,28901,NA
2,9,78,10,0,"hypothesis-inconsistent","Schema therapy & Openness in Borderline PD","Schema therapy (ST) is known to be an efficacious treatment with medium to large effect sizes in young adults diagnosed with borderline personality disorder (BPD). Nevertheless, patients’ treatment outcomes vary strongly in ST. It remains unclear which factors drive this variability in treatment efficacy. We hypothesized that openness to experience might positively moderate the effectiveness of ST, with individuals with higher levels of openness experiencing more pronounced reductions in symptom burden. 125 participants aged between 18 and 29 years participated in our quasi-experimental pretest/posttest study. Participants completed self-report measures of BPD symptoms and of attitudes about openness to experience before (t0) and after (t1) attending either a 12-session ST program (n = 62) or a wait list condition (n = 63). Participants in the ST condition showed a pronounced symptom improvement while there was no improvement in the wait list condition. Contrary to our hypothesis, improvement over time was negatively moderated by openness to experience in the ST group: Individuals who reported lower levels of openness to experience showed more pronounced reductions in BPD symptoms. The results indicate that high openness to experience might represent a risk factor for treatment non-response in young adults undergoing ST for the treatment of BPD.","text/10b.html_decision1_read",70,2210,50,2332,4,5,2182,3,4,1031,71,1598,50,3115,0,1082,31630,NA
2,10,87,8,0,"hypothesis-inconsistent","Extraversion and Group-Based Approaches in GAD","Individual psychodynamic therapy is consistently found to be more efficacious than group-based psychodynamic therapy in patients with generalized anxiety disorder (GAD). However, in other anxiety disorders, group-based approaches are known to be more effective. Studies on personality risk factors in GAD found that the disorder is strongly associated with low extraversion. Thus, the present study investigated whether the efficacy of group-based psychodynamic therapy is moderated by extraversion. We hypothesized that individuals with low extraversion might benefit less from the advantageous effects of group-based psychodynamic therapy than those with higher extraversion. A total of 134 individuals diagnosed with GAD according to the DSM-5 criteria took part in our randomized controlled trial. Participants were allocated to group-based psychodynamic therapy, individual psychodynamic therapy, or a wait list control group. The Generalized Anxiety Disorder Scale-7 (GAD-7) and the Big Five Inventory (BFI-10) were completed at baseline and 9-month follow-up. GAD-7 scores decreased from baseline to follow-up in the group-based and in the individual condition, while the wait-list group showed no change. Contrary to our hypothesis, symptom reduction was moderated by extraversion only in the individual psychodynamic therapy setting: Individuals reporting lower extraversion tended to show smaller increases compared to more extroverted individuals. The findings suggest that patients with low extraversion benefit less from individual psychodynamic therapy.","text/8b.html_decision1_read",50,1854,30,1482,4,5,3082,4,5,1048,35,2981,34,2182,0,1598,31600,NA
2,11,96,12,1,"hypothesis-consistent","Primary Agoraphobia and Agoraphobia with Fearful Spells","A third of all patients with agoraphobia have primary agoraphobia (PA) without a history of panic disorder (PD), panic attacks, or fearful spells. Individuals with agoraphobia with fearful spells (AwFS) share several functional and structural brain characteristics with individuals with PD, which are not found in individuals with PA. These similarities include reduced cortical thickness in prefrontal brain regions associated with extinction learning. In a randomized controlled trial, we investigated whether individuals with PA show a greater symptom reduction after cognitive behavior therapy (CBT) compared to individuals with AwFS, who might have more difficulties in extinction learning during treatment. Eighty-three participants with AwFs and 94 with PA were randomly assigned to either a 12-week CBT condition (n=91) or a waiting list condition (n=86). Symptom severity was prospectively followed up after 12 weeks using the Panic and Agoraphobia Scale (PAS). Repeated measures ANOVA models were estimated. The interaction effect of treatment x diagnosis x time predicted symptom reduction. Post hoc analyses of this interaction effect revealed that in line with our hypothesis, individuals with PA who underwent CBT experienced the strongest symptom reductions over time. This study provides evidence that PA might be associated with increased responsiveness to CBT compared to AwFS.","text/12a.html_decision1_read",50,3014,38,4234,3,4,2298,4,5,1266,60,4998,43,2347,0,1113,36035,NA
2,12,105,9,0,"hypothesis-inconsistent","Hindsight Bias in MDD and GAD","Hindsight bias in major depressive disorder (MDD) has attracted considerable attention in the mental health literature. MDD and generalized anxiety disorder (GAD) share common associations with several cognitive biases such as the fundamental attribution error and the end-of-history illusion. To our knowledge, no empirical research has compared hindsight bias in MDD and GAD. Based on the current literature, we hypothesized that hindsight bias would be as pronounced in MDD as in GAD. To investigate this, we conducted a quasi-experimental study with 169 participants (84 MDD/ 85 GAD). Hindsight bias was operationalized using both the memory and the hypothetical design. Contrary to our hypothesis, hindsight bias in both the memory and the hypothetical design was more pronounced in MDD patients than in GAD patients. The results indicate that hindsight bias is stronger in MDD than in GAD.","text/9b.html_decision1_read",20,2431,20,2681,4,5,1783,4,5,1198,21,12646,20,1848,0,1032,26825,NA
2,13,114,1,1,"hypothesis-consistent","Delayed Diagnosis of Antisocial PD in Rural Areas","Due to the lack of mental health professionals in many rural areas in the US, residence in a rural area is associated with a delayed diagnosis of mental health conditions. Surprisingly, recent studies did not find this association for individuals with personality disorders. However, given that individuals with antisocial personality disorder (APD) are especially unlikely to seek help, we predicted that those living in rural areas would receive a delayed diagnosis. We conducted a survey study with 183 individuals suffering from APD (N = 64 rural, N = 58 suburban, N = 61 urban areas). Residents of rural areas were older at the time of diagnosis (M = 31.2 years, SD = 5.3) compared to residents of suburban areas (M = 28.1, SD = 5.1) and urban areas (M = 28.5, SD = 4.9), indicating that diagnosis for individuals with APD might be delayed in rural areas in the US.","text/1a.html_decision1_read",24,6213,33,3432,4,5,2548,4,5,1215,23,3432,20,1999,0,6598,38699,NA
2,14,123,13,0,"hypothesis-inconsistent","Systemic Therapy & Metacognitive Therapy in Bipolar I disorder","Recent studies suggest that systemic therapy (ST) provides beneficial effects in terms of reducing symptoms and recurrence rates in mood disorders, which exceed the effects of other therapies such as metacognitive therapy (MT). However, to date, no study has compared the effectiveness of ST and MT in patients with bipolar I disorder (BID). To fill this gap, in a randomized controlled trial, we compared the effectiveness of MT and ST regarding symptom reduction in 163 patients with BID. We hypothesized that symptom reduction would be more pronounced in the ST group than in the MT group. Participants completed symptom severity measures at baseline and at 6-month follow-up. While symptoms decreased in both conditions, the MT group showed a stronger symptom reduction than the ST group. The results provide evidence that ST represents an efficacious treatment option for BID, but that MT is superior.","text/13b.html_decision1_read",7,3963,9,1963,4,5,1866,4,5,1098,20,8546,14,1949,0,933,50383,NA
2,15,132,16,1,"hypothesis-consistent","Subclinical Social anxiety and Group Therapy Outcomes","Randomized controlled trials have documented the efficacy of transdiagnostic cognitive behavioral group therapy (TCB-GT). However, little is known about the role of subclinical social anxiety in TCB-GT, which is associated with worse outcomes in other group therapy settings. We hypothesized that individuals with higher social anxiety would experience less pronounced improvements during group therapy. In this multi-center study, 181 patients with panic disorder, obsessive-compulsive disorder, bipolar disorder, generalized anxiety disorder, or posttraumatic stress disorder took part in 20 weekly sessions of TCB-GT. The exclusion criterion was fulfillment of all diagnostic criteria for social anxiety disorder. All participants completed the Liebowitz Social Anxiety Scale (LSAS) at pre-treatment baseline and diagnosis-specific symptom measures at baseline, 10-week follow-up and 20-week follow-up. Strong symptom improvements were observed at both follow-ups, with the exception of the bipolar disorder subgroup at the first follow-up. Consistent with our expectation, individuals with higher social anxiety experienced less pronounced improvements during group therapy. The results demonstrate that individuals with high subclinical social anxiety are at particular risk of treatment non-response in TCB-GT.","text/16a.html_decision1_read",50,3162,50,1315,4,5,2331,4,5,1401,60,8083,50,2129,0,995,24277,NA
2,16,141,2,0,"hypothesis-inconsistent","Laxative abuse in Bulimia nervosa and Prolonged Inpatient Stay","Laxative abuse (LA) in patients with bulimia nervosa (BN) is associated with greater suicidality and self-harm as compared to self-induced vomiting (SIV). Due to these unfavorable associations with LA, we assumed that patients who mainly use LA for compensatory purging would also remain in inpatient treatment for longer than BN patients who mainly use SIV. We interviewed 154 patients with BN about their compensatory behaviors following admission to an inpatient clinic for eating disorders. Of these, 102 individuals reported predominantly using SIV while 52 reported predominantly using LA. Compared to patients mainly using SIV (M = 10.5, SD = 4.1), patients primarily using LA did not stay in inpatient care for longer (M = 9.8, SD = 4.6). While there are several unfavorable associations with LA, we conclude that LA in patients with BN is not associated with prolonged inpatient stays.","text/2b.html_decision1_read",5,2148,11,1967,4,5,2913,2,3,1032,8,1767,23,1613,0,850,18505,NA
3,1,5,4,0,"hypothesis-inconsistent","Gender & Mindful-Based Cognitive Therapy","Mindfulness-based cognitive therapy (MBCT) has proven to be efficacious for stress reduction and has become increasingly popular over recent years, especially in female patients. However, little research has explored whether its effectiveness is moderated by gender. The current study therefore investigated whether female participants benefit more from MBCT compared to male participants. Seventy-six females and 69 males completed an MBCT program consisting of eight sessions delivered weekly. Stress symptoms were assessed using the Perceived Stress Scale (PSS) at three measurement time points: 1 week before the intervention, 1 week after the intervention and 7 weeks after the intervention. Pre-intervention stress levels were comparable between the two groups. Males reported lower levels of perceived stress after the intervention than did females. No other main effects or interactions emerged across any of the outcome variables. Contrary to our hypothesis, these findings indicate that males may benefit more from MBCT than females.","text/4b.html_decision1_read",80,10581,80,9056,5,6,13782,5,6,3256,80,10420,61,4740,0,22376,43665,NA
3,2,14,13,1,"hypothesis-consistent","Systemic Therapy & Metacognitive Therapy in Bipolar I disorder","Recent studies suggest that systemic therapy (ST) provides beneficial effects in terms of reducing symptoms and recurrence rates in mood disorders, which exceed the effects of other therapies such as metacognitive therapy (MT). However, to date, no study has compared the effectiveness of ST and MT in patients with bipolar I disorder (BID). To fill this gap, in a randomized controlled trial, we compared the effectiveness of MT and ST regarding symptom reduction in 163 patients with BID. We hypothesized that symptom reduction would be more pronounced in the ST group than in the MT group. Participants completed symptom severity measures at baseline and at 6-month follow-up. While symptoms decreased in both conditions, the ST group showed a stronger symptom reduction than the MT group. The results provide evidence that ST represents an efficacious treatment option for BID, which is superior to MT.","text/13a.html_decision1_read",89,4868,80,4094,6,7,5727,5,6,2783,90,3864,80,4155,0,2383,42807,NA
3,3,23,16,0,"hypothesis-inconsistent","Subclinical Social anxiety and Group Therapy Outcomes","Randomized controlled trials have documented the efficacy of transdiagnostic cognitive behavioral group therapy (TCB-GT). However, little is known about the role of subclinical social anxiety in TCB-GT, which is associated with worse outcomes in other group therapy settings. We hypothesized that individuals with higher social anxiety would experience less pronounced improvements during group therapy. In this multi-center study, 181 patients with panic disorder, obsessive-compulsive disorder, bipolar disorder, generalized anxiety disorder, or posttraumatic stress disorder took part in 20 weekly sessions of TCB-GT. The exclusion criterion was fulfillment of all diagnostic criteria for social anxiety disorder. All participants completed the Liebowitz Social Anxiety Scale (LSAS) at pre-treatment baseline and diagnosis-specific symptom measures at baseline, 10-week follow-up and 20-week follow-up. Strong symptom improvements were observed at both follow-ups, with the exception of the bipolar disorder subgroup at the first follow-up. Inconsistent with our expectation, individuals with lower social anxiety experienced less pronounced improvements during group therapy. The results demonstrate that individuals with high subclinical social anxiety benefit more from TCB-GT compared to individuals with low social anxiety.","text/16b.html_decision1_read",51,4795,50,3807,2,3,5124,2,3,3500,40,3445,30,4096,0,2244,65496,NA
3,4,32,7,0,"hypothesis-inconsistent","Systemic Psychotherapy in OCD","The involvement of caregivers (parents and partners) in systemic psychotherapy (SPT) has gained attention in the mental health literature. Most of the evidence on beneficial treatment effects of systemic involvement comes from studies on affective disorders, while evidence regarding obsessive-compulsive disorder (OCD) is lacking. In this randomized controlled study, we hypothesized that SPT is as efficacious as psychodynamic therapy in terms of improving symptom burden in OCD A total of 147 participants were randomized either to SPT (n = 49), psychodynamic therapy (n = 49), or a wait list condition (n = 49). Symptom burden of OCD was assessed twice at 6-month intervals using the Yale-Brown Obsessive-Compulsive Scale (Y-BOCS). Participants in both the psychodynamic and the SPT condition showed decreases in their symptom burden scores over time. However, using an equivalency test, at 6-month follow-up, symptom burden was lower in the psychodynamic group than in the SPT group. Symptom burden scores for the wait list condition remained unchanged. The findings suggest that SPT is less efficacious than psychodynamic therapy in terms of improving symptom burden in OCD.","text/7b.html_decision1_read",71,4584,50,3029,5,6,5089,3,4,2299,70,4266,59,4223,0,2338,57837,NA
3,5,41,8,1,"hypothesis-consistent","Extraversion and Group-Based Approaches in GAD","Individual psychodynamic therapy is consistently found to be more efficacious than group-based psychodynamic therapy in patients with generalized anxiety disorder (GAD). However, in other anxiety disorders, group-based approaches are known to be more effective. Studies on personality risk factors in GAD found that the disorder is strongly associated with low extraversion. Thus, the present study investigated whether the efficacy of group-based psychodynamic therapy is moderated by extraversion. We hypothesized that individuals with low extraversion might benefit less from the advantageous effects of group-based psychodynamic therapy than those with higher extraversion. A total of 134 individuals diagnosed with GAD according to the DSM-5 criteria took part in our randomized controlled trial. Participants were allocated to group-based psychodynamic therapy, individual psychodynamic therapy, or a wait list control group. The Generalized Anxiety Disorder Scale-7 (GAD-7) and the Big Five Inventory (BFI-10) were completed at baseline and 9-month follow-up. GAD-7 scores decreased from baseline to follow-up in the group-based and in the individual condition, while the wait-list group showed no change. As hypothesized, symptom reduction was moderated by extraversion only in the group-based setting: Individuals reporting lower extraversion tended to show smaller increases compared to more extroverted individuals. The findings suggest that patients with low extraversion benefit less from group-based psychodynamic therapy.","text/8a.html_decision1_read",29,3688,21,3995,6,7,4355,6,7,1756,20,3561,20,2906,0,1753,71691,NA
3,6,50,10,1,"hypothesis-consistent","Schema therapy & Openness in Borderline PD","Schema therapy (ST) is known to be an efficacious treatment with medium to large effect sizes in young adults diagnosed with borderline personality disorder (BPD). Nevertheless, patients’ treatment outcomes vary strongly in ST. It remains unclear which factors drive this variability in treatment efficacy. We hypothesized that openness to experience might positively moderate the effectiveness of ST, with individuals with higher levels of openness experiencing more pronounced reductions in symptom burden. 125 participants aged between 18 and 29 years participated in our quasi-experimental pretest/posttest study. Participants completed self-report measures of BPD symptoms and of attitudes about openness to experience before (t0) and after (t1) attending either a 12-session ST program (n = 62) or a wait list condition (n = 63). Participants in the ST condition showed a pronounced symptom improvement while there was no improvement in the wait list condition. Confirming our hypothesis, improvement over time was positively moderated by openness to experience in the ST group: Individuals who reported higher levels of openness to experience showed more pronounced reductions in BPD symptoms. The results indicate that low openness to experience might represent a risk factor for treatment non-response in young adults undergoing ST for the treatment of BPD.","text/10a.html_decision1_read",29,3698,11,3010,5,6,3906,5,6,2091,20,3501,10,3023,0,1820,63321,NA
3,7,59,1,1,"hypothesis-consistent","Delayed Diagnosis of Antisocial PD in Rural Areas","Due to the lack of mental health professionals in many rural areas in the US, residence in a rural area is associated with a delayed diagnosis of mental health conditions. Surprisingly, recent studies did not find this association for individuals with personality disorders. However, given that individuals with antisocial personality disorder (APD) are especially unlikely to seek help, we predicted that those living in rural areas would receive a delayed diagnosis. We conducted a survey study with 183 individuals suffering from APD (N = 64 rural, N = 58 suburban, N = 61 urban areas). Residents of rural areas were older at the time of diagnosis (M = 31.2 years, SD = 5.3) compared to residents of suburban areas (M = 28.1, SD = 5.1) and urban areas (M = 28.5, SD = 4.9), indicating that diagnosis for individuals with APD might be delayed in rural areas in the US.","text/1a.html_decision1_read",8,3616,0,2588,6,7,4894,6,7,2156,7,3788,0,2250,0,1618,37914,NA
3,8,68,3,0,"hypothesis-inconsistent","Trauma-Focused Cognitive Behavior Therapy in Borderline Personality Disorder","Borderline personality disorder (BPD) is a severe mental illness associated with poor quality of life (QoL). As trauma exposure may be involved in the development of BPD, trauma-focused cognitive behavioral therapy (TF-CBT) might be a beneficial treatment option for patients with the disorder. To examine whether TF-CBT leads to greater increases in QoL compared to standard care in patients with BPD, we conducted a randomized controlled trial comparing standard cognitive behavioral therapy (CBT) alone with TF-CBT. Eighty-nine adult outpatients diagnosed with borderline personality disorder according to the DSM-5 criteria received either CBT (n = 46) or TF-CBT (n = 43). Patients completed self-report measures before randomization and again two months later. Compared with CBT participants, those who underwent TF-CBT experienced smaller improvements in several domains of QoL, including general functioning, physical health, psychological distress, interpersonal problems, and overall QoL. Contrary to our hypothesis, our results suggest that TF-CBT is less beneficial than the standard-care CBT option in terms of improving QoL in individuals with borderline personality disorder.","text/3b.html_decision1_read",69,4075,51,3043,6,7,3389,6,7,2066,70,3012,50,1918,0,1269,57593,NA
3,9,77,6,0,"hypothesis-inconsistent","Telepsychotherapy in Social Anxiety Disorder","Social anxiety disorder (SAD) affects approximately 2% of adults worldwide, most commonly during adolescence. Despite skepticism from many practitioners, telepsychotherapy (TPT) represents an efficacious alternative to regular face-to-face psychotherapy (FTF-PT) for various mental disorders. Unfortunately, many studies examining TPT excluded patients with SAD due to their often-found deficits in adapting to new forms of social situations. However, since telepsychotherapy represents a less intense social exposure for individuals with SAD, we assumed that the favorable effects of exposure would be less intense in TPT compared to FTF-PT for patients with SAD. In an experimental design, we gathered 12-month follow-up data for 164 individuals diagnosed with SAD. Participants were randomized either to regular cognitive behavioral psychotherapy (n = 83) or to telepsychotherapy (n = 81). SAD symptom severity was evaluated using the Liebowitz Social Anxiety Scale. Symptom severity declined in both conditions over time, but contrary to our hypothesis, the effect was stronger in the TPT condition. These results suggest that individuals with SAD benefit more from TPT compared to FTF-PT. A possible mechanism for this might be that in TPT, social cues are experienced as less threatening compared to FTF-PT.","text/6b.html_decision1_read",50,3619,50,1956,6,7,2353,6,7,2237,50,2480,50,1767,0,1214,70887,NA
3,10,86,2,1,"hypothesis-consistent","Laxative abuse in Bulimia nervosa and Prolonged Inpatient Stay","Laxative abuse (LA) in patients with bulimia nervosa (BN) is associated with greater suicidality and self-harm as compared to self-induced vomiting (SIV). Due to these unfavorable associations with LA, we assumed that patients who mainly use LA for compensatory purging would also remain in inpatient treatment for longer than BN patients who mainly use SIV. We interviewed 154 patients with BN about their compensatory behaviors following admission to an inpatient clinic for eating disorders. Of these, 102 individuals reported predominantly using SIV while 52 reported predominantly using LA. Compared to patients mainly using SIV (M = 10.5, SD = 4.1), patients primarily using LA stayed in inpatient care for longer (M = 14.3, SD = 3.1). Consistent with other findings on unfavorable associations with LA, we conclude that LA in patients with BN is also associated with prolonged inpatient stays.","text/2a.html_decision1_read",8,4409,0,2969,6,7,2457,6,7,2503,8,2669,0,2271,0,1480,50808,NA
3,11,95,14,1,"hypothesis-consistent","Therapist and Patient Agreeableness in Histrionic PD","Several studies have documented that therapeutic relationships play a key role in psychotherapy outcomes in patients with histrionic personality disorder (HPD). However, many studies in this field have investigated the working alliance between therapist and patient but neglected to examine the influence of personality variables – especially therapist variables – on this alliance. In the present study, we examined whether individuals with HPD experience greater symptom improvements in the case of higher levels of agreeableness in both themselves and in their therapist. In 152 patients with HPD, symptom severity was assessed at baseline and after nine months of treatment using the Brief Histrionic Personality Scale. Therapists (N = 42) and patients completed the Big Five Inventory only once, prior to the initiation of treatment. Using multi-level-modelling, we examined whether measurement time point (level 1) would be nested within patients (level 2), who would in turn be nested within therapists (level 3). As expected, individuals with HPD demonstrated a greater symptom improvement when both patient and therapist showed higher scores on agreeableness. The results suggest that agreeableness in both the patient and the therapist positively influences psychotherapy outcomes in HPD.","text/14a.html_decision1_read",80,4371,50,2085,6,7,3513,6,7,2335,80,3749,59,4525,0,1117,61682,NA
3,12,104,9,0,"hypothesis-inconsistent","Hindsight Bias in MDD and GAD","Hindsight bias in major depressive disorder (MDD) has attracted considerable attention in the mental health literature. MDD and generalized anxiety disorder (GAD) share common associations with several cognitive biases such as the fundamental attribution error and the end-of-history illusion. To our knowledge, no empirical research has compared hindsight bias in MDD and GAD. Based on the current literature, we hypothesized that hindsight bias would be as pronounced in MDD as in GAD. To investigate this, we conducted a quasi-experimental study with 169 participants (84 MDD/ 85 GAD). Hindsight bias was operationalized using both the memory and the hypothetical design. Contrary to our hypothesis, hindsight bias in both the memory and the hypothetical design was more pronounced in MDD patients than in GAD patients. The results indicate that hindsight bias is stronger in MDD than in GAD.","text/9b.html_decision1_read",7,3925,0,2373,6,7,2175,6,7,2643,0,3260,0,2435,0,1429,44738,NA
3,13,113,5,0,"hypothesis-inconsistent","Pre-Treatment Symptom Severity in Psychodynamic Therapy for PTSD","To date, there is a lack of knowledge whether psychotherapeutic interventions work equally well in PTSD patients regardless of initial symptom severity. In a randomized controlled trial, we therefore investigated whether treatments would reduce PTSD symptoms differently depending on patients' baseline symptom burden. We postulated that high initial symptom burden would be associated with smaller symptom improvement. A total of 153 PTSD patients were assigned either to six months of psychodynamic therapy (n = 73) or a waiting list control group (n = 80). Symptom severity was measured 1 week before the first therapy session and 1, 3, and 6 months later. Longitudinal multi-level models were fitted. Symptom severity decreased over time only in the treatment group. However, high initial symptom severity predicted greater changes in symptom severity. Contrary to our hypothesis, our results indicate that patients with high pre-treatment symptom severity benefit more from therapy, whereas those with low initial severity benefit less.","text/5b.html_decision1_read",9,3369,0,3153,6,7,3015,6,7,1837,9,4979,0,2082,0,1317,49063,NA
3,14,122,11,1,"hypothesis-consistent","Changes in Life Satisfaction after Interpersonal Therapy for Alcohol Abuse Disorder: Teletherapy vs. face-to-face therapy","Interpersonal therapy has become one of the most efficacious treatment options with regard to life satisfaction (LS) for individuals suffering from alcohol abuse disorder (AAD) in the post-acute withdrawal stage. The COVID-19 pandemic has led to an increased need for digital psychotherapy solutions, also in AAD. To date, however, no study has compared the effect of interpersonal therapy on LS in a teletherapy setting versus a face-to-face setting. In a randomized controlled trial, 153 individuals with a previous diagnosis of AAD who had been abstinent for at least six months were randomized to a teletherapy condition or a face-to-face condition. We hypothesized that participants in the two conditions would experience equivalent increases in LS over the course of six months. LS was assessed with the Satisfaction with Life Scale (SWLS) at baseline and six months later. On average, LS increased between the two measurement time points. Furthermore, using equivalency testing, after six months, patients did not show differences in LS scores between the face-to-face and the teletherapy condition, confirming our hypothesis. The results suggest that patients with AAD benefit equally from traditional interpersonal therapy in a face-to-face setting and in an interpersonal teletherapy setting.","text/11a.html_decision1_read",50,3143,16,2383,6,7,2611,6,7,1999,20,3625,0,2687,0,1088,56541,NA
3,15,131,12,1,"hypothesis-consistent","Primary Agoraphobia and Agoraphobia with Fearful Spells","A third of all patients with agoraphobia have primary agoraphobia (PA) without a history of panic disorder (PD), panic attacks, or fearful spells. Individuals with agoraphobia with fearful spells (AwFS) share several functional and structural brain characteristics with individuals with PD, which are not found in individuals with PA. These similarities include reduced cortical thickness in prefrontal brain regions associated with extinction learning. In a randomized controlled trial, we investigated whether individuals with PA show a greater symptom reduction after cognitive behavior therapy (CBT) compared to individuals with AwFS, who might have more difficulties in extinction learning during treatment. Eighty-three participants with AwFs and 94 with PA were randomly assigned to either a 12-week CBT condition (n=91) or a waiting list condition (n=86). Symptom severity was prospectively followed up after 12 weeks using the Panic and Agoraphobia Scale (PAS). Repeated measures ANOVA models were estimated. The interaction effect of treatment x diagnosis x time predicted symptom reduction. Post hoc analyses of this interaction effect revealed that in line with our hypothesis, individuals with PA who underwent CBT experienced the strongest symptom reductions over time. This study provides evidence that PA might be associated with increased responsiveness to CBT compared to AwFS.","text/12a.html_decision1_read",0,2857,0,3161,6,7,2408,6,7,1749,0,2167,0,2399,0,1747,75651,NA
3,16,140,15,0,"hypothesis-inconsistent","Metacognitive Training and Acceptance and Commitment Therapy in GAD","The purpose of this study was to examine symptom change in a randomized controlled trial of metacognitive training (MT) and acceptance and commitment therapy (ACT) for generalized anxiety disorder (GAD). Based on recent meta-analytic findings on GAD, we expected to observe greater symptom reductions in the MT group compared to the ACT group. N = 164 individuals with GAD were randomly assigned to MT (n = 80) or ACT (n = 84). The Generalized Anxiety Disorder Scale-7 (GAD-7) was used to measure anxiety symptoms at baseline and at 6-, 12-, and 18-month follow-up. Eighty-nine (54%) individuals experienced improvement gains and 39 (24%) experienced a deterioration of anxiety. Contrary to our hypothesis, patients in the ACT group experienced stronger improvements than those in the MT group. Rates of symptom change were highest between baseline and first follow-up. Neither individuals in the MT group nor those in the ACT group showed a pronounced further symptom reduction between 12- and 18-month follow-up. The results highlight the beneficial effect of both MT and ACT in the treatment of GAD, but also suggest that ACT might lead to more pronounced symptom improvement.","text/15b.html_decision1_read",50,4379,0,2672,6,7,5590,6,7,2029,50,2494,0,1986,0,1286,85558,NA
4,1,5,3,0,"hypothesis-inconsistent","Trauma-Focused Cognitive Behavior Therapy in Borderline Personality Disorder","Borderline personality disorder (BPD) is a severe mental illness associated with poor quality of life (QoL). As trauma exposure may be involved in the development of BPD, trauma-focused cognitive behavioral therapy (TF-CBT) might be a beneficial treatment option for patients with the disorder. To examine whether TF-CBT leads to greater increases in QoL compared to standard care in patients with BPD, we conducted a randomized controlled trial comparing standard cognitive behavioral therapy (CBT) alone with TF-CBT. Eighty-nine adult outpatients diagnosed with borderline personality disorder according to the DSM-5 criteria received either CBT (n = 46) or TF-CBT (n = 43). Patients completed self-report measures before randomization and again two months later. Compared with CBT participants, those who underwent TF-CBT experienced smaller improvements in several domains of QoL, including general functioning, physical health, psychological distress, interpersonal problems, and overall QoL. Contrary to our hypothesis, our results suggest that TF-CBT is less beneficial than the standard-care CBT option in terms of improving QoL in individuals with borderline personality disorder.","text/3b.html_decision1_read",39,6884,29,6719,2,3,9157,2,3,3284,40,3208,40,2932,1,33857,76048,74278
4,2,15,4,1,"hypothesis-consistent","Gender & Mindful-Based Cognitive Therapy","Mindfulness-based cognitive therapy (MBCT) has proven to be efficacious for stress reduction and has become increasingly popular over recent years, especially in female patients. However, little research has explored whether its effectiveness is moderated by gender. The current study therefore investigated whether female participants benefit more from MBCT compared to male participants. Seventy-six females and 69 males completed an MBCT program consisting of eight sessions delivered weekly. Stress symptoms were assessed using the Perceived Stress Scale (PSS) at three measurement time points: 1 week before the intervention, 1 week after the intervention and 7 weeks after the intervention. Pre-intervention stress levels were comparable between the two groups. Females reported lower levels of perceived stress after the intervention than did males. No other main effects or interactions emerged across any of the outcome variables. These findings confirm our hypothesis that females may benefit more from MBCT than males.","text/4a.html_decision1_read",40,2761,50,2385,5,6,3441,5,6,1633,40,4267,50,2016,0,2819,42414,NA
4,3,24,2,1,"hypothesis-consistent","Laxative abuse in Bulimia nervosa and Prolonged Inpatient Stay","Laxative abuse (LA) in patients with bulimia nervosa (BN) is associated with greater suicidality and self-harm as compared to self-induced vomiting (SIV). Due to these unfavorable associations with LA, we assumed that patients who mainly use LA for compensatory purging would also remain in inpatient treatment for longer than BN patients who mainly use SIV. We interviewed 154 patients with BN about their compensatory behaviors following admission to an inpatient clinic for eating disorders. Of these, 102 individuals reported predominantly using SIV while 52 reported predominantly using LA. Compared to patients mainly using SIV (M = 10.5, SD = 4.1), patients primarily using LA stayed in inpatient care for longer (M = 14.3, SD = 3.1). Consistent with other findings on unfavorable associations with LA, we conclude that LA in patients with BN is also associated with prolonged inpatient stays.","text/2a.html_decision1_read",19,2535,20,3631,5,6,1866,5,6,1267,20,4057,19,1657,0,1319,116255,NA
4,4,33,5,1,"hypothesis-consistent","Pre-Treatment Symptom Severity in Psychodynamic Therapy for PTSD","To date, there is a lack of knowledge about whether psychotherapeutic interventions work equally well in PTSD patients regardless of initial symptom severity. In a randomized controlled trial, we therefore investigated whether treatments would reduce PTSD symptoms differently depending on patients' baseline symptom burden. We postulated that high initial symptom burden would be associated with smaller symptom improvement. A total of 153 PTSD patients were assigned either to six months of psychodynamic therapy (n = 73) or a waiting list control group (n = 80). Symptom severity was measured 1 week before the first therapy session and 1, 3, and 6 months later. Longitudinal multilevel models were fitted. Symptom severity decreased over time only in the treatment group. However, high initial symptom severity predicted lower changes in symptom severity. Confirming our hypothesis, our results indicate that patients with high pre-treatment symptom severity benefit less from therapy, whereas those with low initial severity benefit more.","text/5a.html_decision1_read",71,2251,70,1760,5,6,2828,5,6,1394,70,3150,70,1566,0,1085,19374,NA
4,5,42,8,1,"hypothesis-consistent","Extraversion and Group-Based Approaches in GAD","Individual psychodynamic therapy is consistently found to be more efficacious than group-based psychodynamic therapy in patients with generalized anxiety disorder (GAD). However, in other anxiety disorders, group-based approaches are known to be more effective. Studies on personality risk factors in GAD found that the disorder is strongly associated with low extraversion. Thus, the present study investigated whether the efficacy of group-based psychodynamic therapy is moderated by extraversion. We hypothesized that individuals with low extraversion might benefit less from the advantageous effects of group-based psychodynamic therapy than those with higher extraversion. A total of 134 individuals diagnosed with GAD according to the DSM-5 criteria took part in our randomized controlled trial. Participants were allocated to group-based psychodynamic therapy, individual psychodynamic therapy, or a wait list control group. The Generalized Anxiety Disorder Scale-7 (GAD-7) and the Big Five Inventory (BFI-10) were completed at baseline and 9-month follow-up. GAD-7 scores decreased from baseline to follow-up in the group-based and in the individual condition, while the wait-list group showed no change. As hypothesized, symptom reduction was moderated by extraversion only in the group-based setting: Individuals reporting lower extraversion tended to show smaller increases compared to more extroverted individuals. The findings suggest that patients with low extraversion benefit less from group-based psychodynamic therapy.","text/8a.html_decision1_read",20,2721,19,1312,5,6,8190,5,6,1303,20,3500,20,2093,0,4702,122010,NA
4,6,51,7,0,"hypothesis-inconsistent","Systemic Psychotherapy in OCD","The involvement of caregivers (parents and partners) in systemic psychotherapy (SPT) has gained attention in the mental health literature. Most of the evidence on beneficial treatment effects of systemic involvement comes from studies on affective disorders, while evidence regarding obsessive-compulsive disorder (OCD) is lacking. In this randomized controlled study, we hypothesized that SPT is as efficacious as psychodynamic therapy in terms of improving symptom burden in OCD A total of 147 participants were randomized either to SPT (n = 49), psychodynamic therapy (n = 49), or a wait list condition (n = 49). Symptom burden of OCD was assessed twice at 6-month intervals using the Yale-Brown Obsessive-Compulsive Scale (Y-BOCS). Participants in both the psychodynamic and the SPT condition showed decreases in their symptom burden scores over time. However, using an equivalency test, at 6-month follow-up, symptom burden was lower in the psychodynamic group than in the SPT group. Symptom burden scores for the wait list condition remained unchanged. The findings suggest that SPT is less efficacious than psychodynamic therapy in terms of improving symptom burden in OCD.","text/7b.html_decision1_read",50,3283,50,1760,3,4,2378,3,4,1454,50,3561,50,1216,0,846,75282,NA
4,7,60,14,0,"hypothesis-inconsistent","Therapist and Patient Agreeableness in Histrionic PD","Several studies have documented that therapeutic relationships play a key role in psychotherapy outcomes in patients with histrionic personality disorder (HPD). However, many studies in this field have investigated the working alliance between therapist and patient but neglected to examine the influence of personality variables – especially therapist variables – on this alliance. In the present study, we examined whether individuals with HPD experience greater symptom improvements in the case of higher levels of agreeableness in both themselves and in their therapist. In 152 patients with HPD, symptom severity was assessed at baseline and after nine months of treatment using the Brief Histrionic Personality Scale. Therapists (N = 42) and patients completed the Big Five Inventory only once, prior to the initiation of treatment. Using multi-level-modelling, we examined whether measurement time point (level 1) would be nested within patients (level 2), who would in turn be nested within therapists (level 3). Contrary to expectation, individuals with HPD demonstrated greater symptom improvement when both patient and therapist showed lower scores on agreeableness. The results suggest that agreeableness in both the patient and the therapist negatively influences psychotherapy outcomes in HPD.","text/14b.html_decision1_read",29,2700,30,1904,5,6,1389,5,6,1242,29,2503,29,2226,0,946,64483,NA
4,8,69,12,0,"hypothesis-inconsistent","Primary Agoraphobia and Agoraphobia with Fearful Spells","A third of all patients with agoraphobia have primary agoraphobia (PA) without a history of panic disorder (PD), panic attacks, or fearful spells. Individuals with agoraphobia with fearful spells (AwFS) share several functional and structural brain characteristics with individuals with PD, which are not found in individuals with PA. These similarities include reduced cortical thickness in prefrontal brain regions associated with extinction learning. In a randomized controlled trial, we investigated whether individuals with PA show a greater symptom reduction after cognitive behavior therapy (CBT) compared to individuals with AwFS, who might have more difficulties in extinction learning during treatment. Eighty-three participants with AwFs and 94 with PA were randomly assigned to either a 12-week CBT condition (n=91) or a waiting list condition (n=86). Symptom severity was prospectively followed up after 12 weeks using the Panic and Agoraphobia Scale (PAS). Repeated measures ANOVA models were estimated. The interaction effect of treatment x diagnosis x time predicted symptom reduction. Post hoc analyses of this interaction effect revealed that contrary to our hypothesis, individuals with AwFS who underwent CBT experienced the strongest symptom reductions over time. This study provides evidence that AwFS might be associated with increased responsiveness to CBT compared to PA.","text/12b.html_decision1_read",69,3114,70,2293,5,6,1545,5,6,1235,59,2840,60,1813,0,44959,7156,NA
4,9,78,1,0,"hypothesis-inconsistent","Delayed Diagnosis of Antisocial PD in Rural Areas","Due to the lack of mental health professionals in many rural areas in the US, residence in a rural area is associated with a delayed diagnosis of mental health conditions. Surprisingly, recent studies did not find this association for individuals with personality disorders. However, given that individuals with antisocial personality disorder (APD) are especially unlikely to seek help, we predicted that those living in rural areas would receive a delayed diagnosis. We conducted a survey study with 183 individuals suffering from APD (N = 64 rural, N = 58 suburban, N = 61 urban areas). Residents of rural areas were not older at the time of diagnosis (M = 28.4 years, SD = 5.3) compared to residents of suburban areas (M = 28.1, SD = 4.6) and urban areas (M = 28.5, SD = 4.9), indicating that diagnosis for individuals with APD is not delayed in rural areas in the US.","text/1b.html_decision1_read",69,2893,69,1913,2,3,2451,2,3,3719,71,1685,70,2243,0,1687,14270,NA
4,10,87,15,0,"hypothesis-inconsistent","Metacognitive Training and Acceptance and Commitment Therapy in GAD","The purpose of this study was to examine symptom change in a randomized controlled trial of metacognitive training (MT) and acceptance and commitment therapy (ACT) for generalized anxiety disorder (GAD). Based on recent meta-analytic findings on GAD, we expected to observe greater symptom reductions in the MT group compared to the ACT group. N = 164 individuals with GAD were randomly assigned to MT (n = 80) or ACT (n = 84). The Generalized Anxiety Disorder Scale-7 (GAD-7) was used to measure anxiety symptoms at baseline and at 6-, 12-, and 18-month follow-up. Eighty-nine (54%) individuals experienced improvement gains and 39 (24%) experienced a deterioration of anxiety. Contrary to our hypothesis, patients in the ACT group experienced stronger improvements than those in the MT group. Rates of symptom change were highest between baseline and first follow-up. Neither individuals in the MT group nor those in the ACT group showed a pronounced further symptom reduction between 12- and 18-month follow-up. The results highlight the beneficial effect of both MT and ACT in the treatment of GAD, but also suggest that ACT might lead to more pronounced symptom improvement.","text/15b.html_decision1_read",70,3877,70,1815,5,6,3554,5,6,2467,69,11226,69,1596,0,4351,42112,NA
4,11,96,16,1,"hypothesis-consistent","Subclinical Social anxiety and Group Therapy Outcomes","Randomized controlled trials have documented the efficacy of transdiagnostic cognitive behavioral group therapy (TCB-GT). However, little is known about the role of subclinical social anxiety in TCB-GT, which is associated with worse outcomes in other group therapy settings. We hypothesized that individuals with higher social anxiety would experience less pronounced improvements during group therapy. In this multi-center study, 181 patients with panic disorder, obsessive-compulsive disorder, bipolar disorder, generalized anxiety disorder, or posttraumatic stress disorder took part in 20 weekly sessions of TCB-GT. The exclusion criterion was fulfillment of all diagnostic criteria for social anxiety disorder. All participants completed the Liebowitz Social Anxiety Scale (LSAS) at pre-treatment baseline and diagnosis-specific symptom measures at baseline, 10-week follow-up and 20-week follow-up. Strong symptom improvements were observed at both follow-ups, with the exception of the bipolar disorder subgroup at the first follow-up. Consistent with our expectation, individuals with higher social anxiety experienced less pronounced improvements during group therapy. The results demonstrate that individuals with high subclinical social anxiety are at particular risk of treatment non-response in TCB-GT.","text/16a.html_decision1_read",70,2558,70,1745,5,6,2617,5,6,1341,50,16568,50,1335,0,1050,104280,NA
4,12,105,9,1,"hypothesis-consistent","Hindsight Bias in MDD and GAD","Hindsight bias in major depressive disorder (MDD) has attracted considerable attention in the mental health literature. MDD and generalized anxiety disorder (GAD) share common associations with several cognitive biases such as the fundamental attribution error and the end-of-history illusion. To our knowledge, no empirical research has compared hindsight bias in MDD and GAD. Based on the current literature, we hypothesized that hindsight bias would be as pronounced in MDD as in GAD. To investigate this, we conducted a quasi-experimental study with 169 participants (84 MDD/ 85 GAD). Hindsight bias was operationalized using both the memory and the hypothetical design. As hypothesized, hindsight bias in both the memory and the hypothetical design was as pronounced in MDD patients as in GAD patients. The results indicate that patients with MDD and GAD show equal levels of hindsight bias.","text/9a.html_decision1_read",59,3207,60,1680,5,6,2572,5,6,1545,70,3172,70,1890,0,1251,2677,NA
4,13,114,13,1,"hypothesis-consistent","Systemic Therapy & Metacognitive Therapy in Bipolar I disorder","Recent studies suggest that systemic therapy (ST) provides beneficial effects in terms of reducing symptoms and recurrence rates in mood disorders, which exceed the effects of other therapies such as metacognitive therapy (MT). However, to date, no study has compared the effectiveness of ST and MT in patients with bipolar I disorder (BID). To fill this gap, in a randomized controlled trial, we compared the effectiveness of MT and ST regarding symptom reduction in 163 patients with BID. We hypothesized that symptom reduction would be more pronounced in the ST group than in the MT group. Participants completed symptom severity measures at baseline and at 6-month follow-up. While symptoms decreased in both conditions, the ST group showed a stronger symptom reduction than the MT group. The results provide evidence that ST represents an efficacious treatment option for BID, which is superior to MT.","text/13a.html_decision1_read",69,106947,69,1664,4,5,3936,4,5,1830,68,2721,69,1349,0,1005,2363,NA
4,14,123,6,0,"hypothesis-inconsistent","Telepsychotherapy in Social Anxiety Disorder","Social anxiety disorder (SAD) affects approximately 2% of adults worldwide, most commonly during adolescence. Despite skepticism from many practitioners, telepsychotherapy (TPT) represents an efficacious alternative to regular face-to-face psychotherapy (FTF-PT) for various mental disorders. Unfortunately, many studies examining TPT excluded patients with SAD due to their often-found deficits in adapting to new forms of social situations. However, since telepsychotherapy represents a less intense social exposure for individuals with SAD, we assumed that the favorable effects of exposure would be less intense in TPT compared to FTF-PT for patients with SAD. In an experimental design, we gathered 12-month follow-up data for 164 individuals diagnosed with SAD. Participants were randomized either to regular cognitive behavioral psychotherapy (n = 83) or to telepsychotherapy (n = 81). SAD symptom severity was evaluated using the Liebowitz Social Anxiety Scale. Symptom severity declined in both conditions over time, but contrary to our hypothesis, the effect was stronger in the TPT condition. These results suggest that individuals with SAD benefit more from TPT compared to FTF-PT. A possible mechanism for this might be that in TPT, social cues are experienced as less threatening compared to FTF-PT.","text/6b.html_decision1_read",60,2039,60,2242,4,5,2062,4,5,1110,60,1830,59,1215,0,808,36774,NA
4,15,132,10,1,"hypothesis-consistent","Schema therapy & Openness in Borderline PD","Schema therapy (ST) is known to be an efficacious treatment with medium to large effect sizes in young adults diagnosed with borderline personality disorder (BPD). Nevertheless, patients’ treatment outcomes vary strongly in ST. It remains unclear which factors drive this variability in treatment efficacy. We hypothesized that openness to experience might positively moderate the effectiveness of ST, with individuals with higher levels of openness experiencing more pronounced reductions in symptom burden. 125 participants aged between 18 and 29 years participated in our quasi-experimental pretest/posttest study. Participants completed self-report measures of BPD symptoms and of attitudes about openness to experience before (t0) and after (t1) attending either a 12-session ST program (n = 62) or a wait list condition (n = 63). Participants in the ST condition showed a pronounced symptom improvement while there was no improvement in the wait list condition. Confirming our hypothesis, improvement over time was positively moderated by openness to experience in the ST group: Individuals who reported higher levels of openness to experience showed more pronounced reductions in BPD symptoms. The results indicate that low openness to experience might represent a risk factor for treatment non-response in young adults undergoing ST for the treatment of BPD.","text/10a.html_decision1_read",59,1620,60,1175,4,5,1552,4,5,1343,60,1604,60,1222,0,756,791,NA
4,16,141,11,0,"hypothesis-inconsistent","Changes in Life Satisfaction after Interpersonal Therapy for Alcohol Abuse Disorder: Teletherapy vs. face-to-face therapy","Interpersonal therapy has become one of the most efficacious treatment options with regard to life satisfaction (LS) for individuals suffering from alcohol abuse disorder (AAD) in the post-acute withdrawal stage. The COVID-19 pandemic has led to an increased need for digital psychotherapy solutions, also in AAD. To date, however, no study has compared the effect of interpersonal therapy on LS in a teletherapy setting versus a face-to-face setting. In a randomized controlled trial, 153 individuals with a previous diagnosis of AAD who had been abstinent for at least six months were randomized to a teletherapy condition or a face-to-face condition. We hypothesized  that participants in the two conditions would experience equivalent increases in LS over the course of six months. LS was assessed with the Satisfaction with Life Scale (SWLS) at baseline and six months later. On average, LS increased between the two measurement time points. Furthermore, using equivalency testing, after six months, patients in the face-to-face condition showed larger increases in LS scores compared to patients in the teletherapy condition. The results suggest that patients with AAD benefit more from traditional interpersonal therapy in a face-to-face setting compared to an interpersonal teletherapy setting.","text/11b.html_decision1_read",60,1896,61,1829,4,5,1891,4,5,1482,61,1768,60,2378,0,997,671,NA
5,1,5,12,1,"hypothesis-consistent","Primary Agoraphobia and Agoraphobia with Fearful Spells","A third of all patients with agoraphobia have primary agoraphobia (PA) without a history of panic disorder (PD), panic attacks, or fearful spells. Individuals with agoraphobia with fearful spells (AwFS) share several functional and structural brain characteristics with individuals with PD, which are not found in individuals with PA. These similarities include reduced cortical thickness in prefrontal brain regions associated with extinction learning. In a randomized controlled trial, we investigated whether individuals with PA show a greater symptom reduction after cognitive behavior therapy (CBT) compared to individuals with AwFS, who might have more difficulties in extinction learning during treatment. Eighty-three participants with AwFs and 94 with PA were randomly assigned to either a 12-week CBT condition (n=91) or a waiting list condition (n=86). Symptom severity was prospectively followed up after 12 weeks using the Panic and Agoraphobia Scale (PAS). Repeated measures ANOVA models were estimated. The interaction effect of treatment x diagnosis x time predicted symptom reduction. Post hoc analyses of this interaction effect revealed that in line with our hypothesis, individuals with PA who underwent CBT experienced the strongest symptom reductions over time. This study provides evidence that PA might be associated with increased responsiveness to CBT compared to AwFS.","text/12a.html_decision1_read",69,4331,70,2734,5,6,8059,4,5,2149,49,6550,60,2885,0,20564,86529,NA
5,2,14,13,0,"hypothesis-inconsistent","Systemic Therapy & Metacognitive Therapy in Bipolar I disorder","Recent studies suggest that systemic therapy (ST) provides beneficial effects in terms of reducing symptoms and recurrence rates in mood disorders, which exceed the effects of other therapies such as metacognitive therapy (MT). However, to date, no study has compared the effectiveness of ST and MT in patients with bipolar I disorder (BID). To fill this gap, in a randomized controlled trial, we compared the effectiveness of MT and ST regarding symptom reduction in 163 patients with BID. We hypothesized that symptom reduction would be more pronounced in the ST group than in the MT group. Participants completed symptom severity measures at baseline and at 6-month follow-up. While symptoms decreased in both conditions, the MT group showed a stronger symptom reduction than the ST group. The results provide evidence that ST represents an efficacious treatment option for BID, but that MT is superior.","text/13b.html_decision1_read",59,3832,69,4052,4,5,3000,4,5,7871,60,3878,60,4927,0,2681,59237,NA
5,3,23,9,0,"hypothesis-inconsistent","Hindsight Bias in MDD and GAD","Hindsight bias in major depressive disorder (MDD) has attracted considerable attention in the mental health literature. MDD and generalized anxiety disorder (GAD) share common associations with several cognitive biases such as the fundamental attribution error and the end-of-history illusion. To our knowledge, no empirical research has compared hindsight bias in MDD and GAD. Based on the current literature, we hypothesized that hindsight bias would be as pronounced in MDD as in GAD. To investigate this, we conducted a quasi-experimental study with 169 participants (84 MDD/ 85 GAD). Hindsight bias was operationalized using both the memory and the hypothetical design. Contrary to our hypothesis, hindsight bias in both the memory and the hypothetical design was more pronounced in MDD patients than in GAD patients. The results indicate that hindsight bias is stronger in MDD than in GAD.","text/9b.html_decision1_read",71,3793,74,6224,6,7,3017,5,6,4325,70,2769,70,2004,0,1411,58411,NA
5,4,32,3,0,"hypothesis-inconsistent","Trauma-Focused Cognitive Behavior Therapy in Borderline Personality Disorder","Borderline personality disorder (BPD) is a severe mental illness associated with poor quality of life (QoL). As trauma exposure may be involved in the development of BPD, trauma-focused cognitive behavioral therapy (TF-CBT) might be a beneficial treatment option for patients with the disorder. To examine whether TF-CBT leads to greater increases in QoL compared to standard care in patients with BPD, we conducted a randomized controlled trial comparing standard cognitive behavioral therapy (CBT) alone with TF-CBT. Eighty-nine adult outpatients diagnosed with borderline personality disorder according to the DSM-5 criteria received either CBT (n = 46) or TF-CBT (n = 43). Patients completed self-report measures before randomization and again two months later. Compared with CBT participants, those who underwent TF-CBT experienced smaller improvements in several domains of QoL, including general functioning, physical health, psychological distress, interpersonal problems, and overall QoL. Contrary to our hypothesis, our results suggest that TF-CBT is less beneficial than the standard-care CBT option in terms of improving QoL in individuals with borderline personality disorder.","text/3b.html_decision1_read",60,6082,60,2819,5,6,3252,3,4,4542,60,5761,61,2427,0,1515,85388,NA
5,5,41,4,1,"hypothesis-consistent","Gender & Mindful-Based Cognitive Therapy","Mindfulness-based cognitive therapy (MBCT) has proven to be efficacious for stress reduction and has become increasingly popular over recent years, especially in female patients. However, little research has explored whether its effectiveness is moderated by gender. The current study therefore investigated whether female participants benefit more from MBCT compared to male participants. Seventy-six females and 69 males completed an MBCT program consisting of eight sessions delivered weekly. Stress symptoms were assessed using the Perceived Stress Scale (PSS) at three measurement time points: 1 week before the intervention, 1 week after the intervention and 7 weeks after the intervention. Pre-intervention stress levels were comparable between the two groups. Females reported lower levels of perceived stress after the intervention than did males. No other main effects or interactions emerged across any of the outcome variables. These findings confirm our hypothesis that females may benefit more from MBCT than males.","text/4a.html_decision1_read",65,4771,59,2601,3,4,2283,3,4,1697,54,2547,55,2310,0,1832,150231,NA
5,6,50,5,0,"hypothesis-inconsistent","Pre-Treatment Symptom Severity in Psychodynamic Therapy for PTSD","To date, there is a lack of knowledge whether psychotherapeutic interventions work equally well in PTSD patients regardless of initial symptom severity. In a randomized controlled trial, we therefore investigated whether treatments would reduce PTSD symptoms differently depending on patients' baseline symptom burden. We postulated that high initial symptom burden would be associated with smaller symptom improvement. A total of 153 PTSD patients were assigned either to six months of psychodynamic therapy (n = 73) or a waiting list control group (n = 80). Symptom severity was measured 1 week before the first therapy session and 1, 3, and 6 months later. Longitudinal multi-level models were fitted. Symptom severity decreased over time only in the treatment group. However, high initial symptom severity predicted greater changes in symptom severity. Contrary to our hypothesis, our results indicate that patients with high pre-treatment symptom severity benefit more from therapy, whereas those with low initial severity benefit less.","text/5b.html_decision1_read",76,2798,76,2090,5,6,2102,5,6,2254,75,3282,75,2598,0,880,90855,NA
5,7,59,2,1,"hypothesis-consistent","Laxative abuse in Bulimia nervosa and Prolonged Inpatient Stay","Laxative abuse (LA) in patients with bulimia nervosa (BN) is associated with greater suicidality and self-harm as compared to self-induced vomiting (SIV). Due to these unfavorable associations with LA, we assumed that patients who mainly use LA for compensatory purging would also remain in inpatient treatment for longer than BN patients who mainly use SIV. We interviewed 154 patients with BN about their compensatory behaviors following admission to an inpatient clinic for eating disorders. Of these, 102 individuals reported predominantly using SIV while 52 reported predominantly using LA. Compared to patients mainly using SIV (M = 10.5, SD = 4.1), patients primarily using LA stayed in inpatient care for longer (M = 14.3, SD = 3.1). Consistent with other findings on unfavorable associations with LA, we conclude that LA in patients with BN is also associated with prolonged inpatient stays.","text/2a.html_decision1_read",62,4734,60,2646,4,5,2400,4,5,1936,58,2087,59,2592,0,1065,39332,NA
5,8,68,7,0,"hypothesis-inconsistent","Systemic Psychotherapy in OCD","The involvement of caregivers (parents and partners) in systemic psychotherapy (SPT) has gained attention in the mental health literature. Most of the evidence on beneficial treatment effects of systemic involvement comes from studies on affective disorders, while evidence regarding obsessive-compulsive disorder (OCD) is lacking. In this randomized controlled study, we hypothesized that SPT is as efficacious as psychodynamic therapy in terms of improving symptom burden in OCD A total of 147 participants were randomized either to SPT (n = 49), psychodynamic therapy (n = 49), or a wait list condition (n = 49). Symptom burden of OCD was assessed twice at 6-month intervals using the Yale-Brown Obsessive-Compulsive Scale (Y-BOCS). Participants in both the psychodynamic and the SPT condition showed decreases in their symptom burden scores over time. However, using an equivalency test, at 6-month follow-up, symptom burden was lower in the psychodynamic group than in the SPT group. Symptom burden scores for the wait list condition remained unchanged. The findings suggest that SPT is less efficacious than psychodynamic therapy in terms of improving symptom burden in OCD.","text/7b.html_decision1_read",70,3656,70,2764,4,5,2434,4,5,1970,70,2073,70,3142,0,1055,166596,NA
5,9,77,10,1,"hypothesis-consistent","Schema therapy & Openness in Borderline PD","Schema therapy (ST) is known to be an efficacious treatment with medium to large effect sizes in young adults diagnosed with borderline personality disorder (BPD). Nevertheless, patients’ treatment outcomes vary strongly in ST. It remains unclear which factors drive this variability in treatment efficacy. We hypothesized that openness to experience might positively moderate the effectiveness of ST, with individuals with higher levels of openness experiencing more pronounced reductions in symptom burden. 125 participants aged between 18 and 29 years participated in our quasi-experimental pretest/posttest study. Participants completed self-report measures of BPD symptoms and of attitudes about openness to experience before (t0) and after (t1) attending either a 12-session ST program (n = 62) or a wait list condition (n = 63). Participants in the ST condition showed a pronounced symptom improvement while there was no improvement in the wait list condition. Confirming our hypothesis, improvement over time was positively moderated by openness to experience in the ST group: Individuals who reported higher levels of openness to experience showed more pronounced reductions in BPD symptoms. The results indicate that low openness to experience might represent a risk factor for treatment non-response in young adults undergoing ST for the treatment of BPD.","text/10a.html_decision1_read",59,3100,59,2285,3,4,2374,3,4,2455,54,4113,54,2694,0,1398,118769,NA
